"","id","group","block","trial","classification","difficulty","response","rt","stimulus"
"1","2","experienced",3,1,"blast","easy","blast",0.853,"blastEasy/BL_10166384.jpg"
"2","2","experienced",3,2,"non-blast","easy","non-blast",0.575,"nonBlastEasy/16258001115A_069.jpg"
"3","2","experienced",3,3,"non-blast","hard","blast",1.136,"nonBlastHard/BL_11504083.jpg"
"4","2","experienced",3,4,"non-blast","hard","non-blast",0.875,"nonBlastHard/MY_9455143.jpg"
"5","2","experienced",3,5,"blast","easy","blast",0.748,"blastEasy/BL_4062147.jpg"
"6","2","experienced",3,6,"blast","easy","blast",0.706,"blastEasy/BL_2256084.jpg"
"7","2","experienced",3,7,"blast","hard","blast",0.686,"blastHard/OTH_21675275.jpg"
"8","2","experienced",3,8,"blast","hard","blast",0.894,"blastHard/BL_21818179.jpg"
"9","2","experienced",3,9,"non-blast","easy","non-blast",0.592,"nonBlastEasy/PC_18672.jpg"
"10","2","experienced",3,10,"blast","hard","blast",0.637,"blastHard/BL_1121527.jpg"
"11","2","experienced",3,11,"non-blast","easy","non-blast",0.527,"nonBlastEasy/SNE_10020536.jpg"
"12","2","experienced",3,12,"non-blast","easy","non-blast",0.699,"nonBlastEasy/LY_2010584.jpg"
"13","2","experienced",3,13,"blast","easy","blast",0.509,"blastEasy/BL_10020433.jpg"
"14","2","experienced",3,14,"non-blast","hard","non-blast",0.751,"nonBlastHard/VLY_9451032.jpg"
"15","2","experienced",3,15,"blast","easy","blast",0.717,"blastEasy/BL_24839843.jpg"
"16","2","experienced",3,16,"non-blast","hard","blast",2.759,"nonBlastHard/LY_4537514.jpg"
"17","2","experienced",3,17,"non-blast","easy","non-blast",0.573,"nonBlastEasy/16258001115A_012.jpg"
"18","2","experienced",3,18,"non-blast","easy","non-blast",0.714,"nonBlastEasy/ER0944_044.jpg"
"19","2","experienced",3,19,"blast","hard","blast",0.746,"blastHard/OTH_12288082.jpg"
"20","2","experienced",3,20,"blast","hard","blast",0.859,"blastHard/OTH_24746583.jpg"
"21","2","experienced",3,21,"non-blast","hard","blast",1.468,"nonBlastHard/BL_866501.jpg"
"22","2","experienced",3,22,"non-blast","easy","non-blast",0.699,"nonBlastEasy/ER0944_076.jpg"
"23","2","experienced",3,23,"blast","hard","blast",0.907,"blastHard/BL_2038845.jpg"
"24","2","experienced",3,24,"non-blast","easy","non-blast",0.557,"nonBlastEasy/14228000751A_077.jpg"
"25","2","experienced",3,25,"blast","easy","blast",0.621,"blastEasy/BL_4062115.jpg"
"26","2","experienced",3,26,"non-blast","hard","blast",2.99,"nonBlastHard/16258001115A_076.jpg"
"27","2","experienced",3,27,"blast","hard","blast",0.747,"blastHard/BL_1121539.jpg"
"28","2","experienced",3,28,"blast","hard","blast",0.666,"blastHard/BL_21964527.jpg"
"29","2","experienced",3,29,"blast","easy","blast",0.618,"blastEasy/OTH_24746620.jpg"
"30","2","experienced",3,30,"non-blast","easy","non-blast",0.558,"nonBlastEasy/SNE_23013274.jpg"
"31","2","experienced",3,31,"blast","hard","blast",0.732,"blastHard/VLY_1120674.jpg"
"32","2","experienced",3,32,"non-blast","hard","non-blast",0.814,"nonBlastHard/VLY_23416215.jpg"
"33","2","experienced",3,33,"non-blast","easy","non-blast",0.891,"nonBlastEasy/LY_8271951.jpg"
"34","2","experienced",3,34,"non-blast","easy","non-blast",0.828,"nonBlastEasy/ER0944_004.jpg"
"35","2","experienced",3,35,"non-blast","hard","non-blast",1.388,"nonBlastHard/MY_9455177.jpg"
"36","2","experienced",3,36,"non-blast","easy","non-blast",0.542,"nonBlastEasy/16258001115A_005.jpg"
"37","2","experienced",3,37,"non-blast","hard","non-blast",0.81,"nonBlastHard/MO_14163691.jpg"
"38","2","experienced",3,38,"non-blast","hard","non-blast",1.072,"nonBlastHard/VLY_4522566.jpg"
"39","2","experienced",3,39,"blast","hard","blast",0.685,"blastHard/BL_294395.jpg"
"40","2","experienced",3,40,"non-blast","hard","blast",2.001,"nonBlastHard/VLY_4817070.jpg"
"41","2","experienced",3,41,"blast","easy","blast",0.668,"blastEasy/OTH_12288137.jpg"
"42","2","experienced",3,42,"non-blast","hard","non-blast",3.13,"nonBlastHard/VLY_4283274.jpg"
"43","2","experienced",3,43,"non-blast","easy","non-blast",0.601,"nonBlastEasy/EO_10020968.jpg"
"44","2","experienced",3,44,"non-blast","hard","blast",1.162,"nonBlastHard/PC_4237886.jpg"
"45","2","experienced",3,45,"non-blast","hard","blast",0.569,"nonBlastHard/OTH_21675242.jpg"
"46","2","experienced",3,46,"blast","easy","blast",0.621,"blastEasy/BL_12930096.jpg"
"47","2","experienced",3,47,"blast","hard","blast",0.651,"blastHard/OTH_21856141.jpg"
"48","2","experienced",3,48,"non-blast","easy","non-blast",0.523,"nonBlastEasy/16258001115A_015.jpg"
"49","2","experienced",3,49,"blast","easy","blast",0.684,"blastEasy/BL_21930875.jpg"
"50","2","experienced",3,50,"blast","hard","blast",0.735,"blastHard/OTH_21675203.jpg"
"51","2","experienced",3,51,"blast","easy","blast",0.631,"blastEasy/OTH_25263205.jpg"
"52","2","experienced",3,52,"blast","hard","blast",0.635,"blastHard/BL_1121494.jpg"
"53","2","experienced",3,53,"blast","easy","blast",0.588,"blastEasy/OTH_12288092.jpg"
"54","2","experienced",3,54,"blast","easy","blast",0.572,"blastEasy/BL_10020457.jpg"
"55","2","experienced",3,55,"non-blast","hard","non-blast",0.652,"nonBlastHard/16258001115A_044.jpg"
"56","2","experienced",3,56,"non-blast","hard","non-blast",0.672,"nonBlastHard/16258001115A_032.jpg"
"57","2","experienced",3,57,"non-blast","easy","non-blast",0.638,"nonBlastEasy/SNE_23013208.jpg"
"58","2","experienced",3,58,"blast","hard","blast",0.895,"blastHard/OTH_24746609.jpg"
"59","2","experienced",3,59,"non-blast","easy","non-blast",0.606,"nonBlastEasy/SNE_25395286.jpg"
"60","2","experienced",3,60,"non-blast","hard","blast",1.917,"nonBlastHard/HC_9768.jpg"
"61","2","experienced",3,61,"blast","easy","blast",0.712,"blastEasy/OTH_12288131.jpg"
"62","2","experienced",3,62,"blast","hard","blast",0.987,"blastHard/BL_12930070.jpg"
"63","2","experienced",3,63,"blast","easy","blast",0.585,"blastEasy/OTH_23078392.jpg"
"64","2","experienced",3,64,"blast","hard","blast",0.78,"blastHard/BL_23546038.jpg"
"65","2","experienced",3,65,"non-blast","easy","non-blast",0.523,"nonBlastEasy/ER0944_010.jpg"
"66","2","experienced",3,66,"blast","easy","blast",0.576,"blastEasy/BL_12930163.jpg"
"67","2","experienced",3,67,"blast","hard","blast",1.038,"blastHard/BL_26626240.jpg"
"68","2","experienced",3,68,"blast","hard","blast",0.669,"blastHard/OTH_23078449.jpg"
"69","2","experienced",3,69,"blast","easy","blast",0.653,"blastEasy/BL_4062100.jpg"
"70","2","experienced",3,70,"non-blast","hard","non-blast",0.972,"nonBlastHard/16253007354A_027.jpg"
"71","2","experienced",3,71,"blast","easy","blast",0.704,"blastEasy/BL_21964525.jpg"
"72","2","experienced",3,72,"blast","easy","blast",0.59,"blastEasy/OTH_21668256.jpg"
"73","2","experienced",3,73,"non-blast","hard","blast",1.436,"nonBlastHard/PMY_9295594.jpg"
"74","2","experienced",3,74,"blast","easy","blast",0.605,"blastEasy/BL_21930949.jpg"
"75","2","experienced",3,75,"blast","easy","blast",0.606,"blastEasy/BL_12930032.jpg"
"76","2","experienced",3,76,"blast","hard","blast",1.146,"blastHard/BL_1121510.jpg"
"77","2","experienced",3,77,"blast","easy","blast",0.781,"blastEasy/BL_1199993.jpg"
"78","2","experienced",3,78,"blast","easy","blast",0.88,"blastEasy/BL_1200010.jpg"
"79","2","experienced",3,79,"non-blast","easy","non-blast",0.51,"nonBlastEasy/ER0944_025.jpg"
"80","2","experienced",3,80,"non-blast","easy","non-blast",0.652,"nonBlastEasy/ER0944_046.jpg"
"81","2","experienced",3,81,"blast","hard","blast",0.828,"blastHard/BL_2256090.jpg"
"82","2","experienced",3,82,"blast","hard","blast",0.906,"blastHard/BL_26626171.jpg"
"83","2","experienced",3,83,"non-blast","hard","blast",1.533,"nonBlastHard/PC_4237901.jpg"
"84","2","experienced",3,84,"non-blast","easy","non-blast",0.713,"nonBlastEasy/EO_10020866.jpg"
"85","2","experienced",3,85,"non-blast","easy","non-blast",0.571,"nonBlastEasy/SNE_10020606.jpg"
"86","2","experienced",3,86,"non-blast","hard","non-blast",2.369,"nonBlastHard/VLY_9446390.jpg"
"87","2","experienced",3,87,"blast","easy","blast",0.573,"blastEasy/BL_10020393.jpg"
"88","2","experienced",3,88,"non-blast","hard","non-blast",1.053,"nonBlastHard/BL_21818137.jpg"
"89","2","experienced",3,89,"non-blast","easy","non-blast",0.605,"nonBlastEasy/ER0944_007.jpg"
"90","2","experienced",3,90,"blast","hard","blast",0.893,"blastHard/OTH_16204423.jpg"
"91","2","experienced",3,91,"blast","hard","blast",0.671,"blastHard/BL_1121444.jpg"
"92","2","experienced",3,92,"non-blast","easy","non-blast",1.035,"nonBlastEasy/LY_10021359.jpg"
"93","2","experienced",3,93,"non-blast","easy","non-blast",0.571,"nonBlastEasy/ER0944_011.jpg"
"94","2","experienced",3,94,"non-blast","hard","non-blast",0.811,"nonBlastHard/VLY_2010536.jpg"
"95","2","experienced",3,95,"blast","hard","blast",0.719,"blastHard/BL_3931090.jpg"
"96","2","experienced",3,96,"non-blast","hard","non-blast",1.147,"nonBlastHard/VLY_17642979.jpg"
"97","2","experienced",3,97,"blast","easy","blast",0.78,"blastEasy/BL_3931099.jpg"
"98","2","experienced",3,98,"blast","hard","blast",0.635,"blastHard/OTH_21856094.jpg"
"99","2","experienced",3,99,"non-blast","hard","blast",1.051,"nonBlastHard/USRWBC1_9913295.jpg"
"100","2","experienced",3,100,"non-blast","easy","non-blast",0.588,"nonBlastEasy/LY_1314707.jpg"
"101","2","experienced",6,1,"blast","easy","blast",0.581,"blastEasy/BL_23549452.jpg"
"102","2","experienced",6,2,"blast","hard","blast",0.496,"blastHard/BL_669395.jpg"
"103","2","experienced",6,3,"blast","easy","blast",0.505,"blastEasy/BL_21964525.jpg"
"104","2","experienced",6,4,"non-blast","hard","non-blast",0.944,"nonBlastHard/MY_9455143.jpg"
"105","2","experienced",6,5,"blast","easy","blast",0.668,"blastEasy/BL_4062132.jpg"
"106","2","experienced",6,6,"blast","hard","blast",0.637,"blastHard/OTH_21856094.jpg"
"107","2","experienced",6,7,"non-blast","easy","non-blast",0.528,"nonBlastEasy/SNE_10020550.jpg"
"108","2","experienced",6,8,"blast","easy","blast",0.525,"blastEasy/BL_1121496.jpg"
"109","2","experienced",6,9,"non-blast","easy","non-blast",0.696,"nonBlastEasy/LY_899979.jpg"
"110","2","experienced",6,10,"non-blast","easy","non-blast",0.59,"nonBlastEasy/ER0944_004.jpg"
"111","2","experienced",6,11,"blast","easy","blast",0.531,"blastEasy/BL_24839843.jpg"
"112","2","experienced",6,12,"blast","easy","blast",0.537,"blastEasy/OTH_12288098.jpg"
"113","2","experienced",6,13,"non-blast","hard","non-blast",1.652,"nonBlastHard/VLY_9451032.jpg"
"114","2","experienced",6,14,"non-blast","hard","non-blast",0.713,"nonBlastHard/16253007354A_077.jpg"
"115","2","experienced",6,15,"non-blast","hard","blast",1.731,"nonBlastHard/LY_4537514.jpg"
"116","2","experienced",6,16,"non-blast","easy","non-blast",0.511,"nonBlastEasy/16258001115A_015.jpg"
"117","2","experienced",6,17,"blast","hard","blast",0.9,"blastHard/BL_11637390.jpg"
"118","2","experienced",6,18,"non-blast","easy","non-blast",1.509,"nonBlastEasy/16258001115A_078.jpg"
"119","2","experienced",6,19,"non-blast","easy","non-blast",0.553,"nonBlastEasy/LY_10021352.jpg"
"120","2","experienced",6,20,"blast","easy","blast",0.574,"blastEasy/BL_7477450.jpg"
"121","2","experienced",6,21,"blast","hard","blast",0.74,"blastHard/OTH_12288082.jpg"
"122","2","experienced",6,22,"blast","easy","blast",0.525,"blastEasy/BL_21930172.jpg"
"123","2","experienced",6,23,"non-blast","easy","non-blast",0.511,"nonBlastEasy/ER0944_025.jpg"
"124","2","experienced",6,24,"blast","easy","blast",0.607,"blastEasy/BL_2256084.jpg"
"125","2","experienced",6,25,"non-blast","hard","non-blast",3.364,"nonBlastHard/VLY_17643038.jpg"
"126","2","experienced",6,26,"non-blast","easy","non-blast",0.57,"nonBlastEasy/ER0944_042.jpg"
"127","2","experienced",6,27,"non-blast","easy","non-blast",0.562,"nonBlastEasy/ER0944_038.jpg"
"128","2","experienced",6,28,"blast","easy","blast",0.687,"blastEasy/OTH_21668256.jpg"
"129","2","experienced",6,29,"non-blast","easy","non-blast",0.561,"nonBlastEasy/14228000751A_077.jpg"
"130","2","experienced",6,30,"blast","easy","blast",0.48,"blastEasy/VLY_10022863.jpg"
"131","2","experienced",6,31,"non-blast","hard","blast",1.22,"nonBlastHard/PC_4237901.jpg"
"132","2","experienced",6,32,"blast","hard","blast",0.621,"blastHard/OTH_21675313.jpg"
"133","2","experienced",6,33,"non-blast","easy","non-blast",0.508,"nonBlastEasy/SNE_23013314.jpg"
"134","2","experienced",6,34,"non-blast","hard","non-blast",0.756,"nonBlastHard/VLY_2010536.jpg"
"135","2","experienced",6,35,"blast","easy","blast",0.584,"blastEasy/OTH_24746620.jpg"
"136","2","experienced",6,36,"blast","easy","blast",0.557,"blastEasy/OTH_25263198.jpg"
"137","2","experienced",6,37,"blast","hard","blast",0.556,"blastHard/OTH_23078373.jpg"
"138","2","experienced",6,38,"blast","easy","blast",0.519,"blastEasy/BL_14263216.jpg"
"139","2","experienced",6,39,"blast","easy","blast",0.461,"blastEasy/BL_21930949.jpg"
"140","2","experienced",6,40,"blast","easy","blast",0.95,"blastEasy/BL_26626166.jpg"
"141","2","experienced",6,41,"blast","hard","blast",0.803,"blastHard/BL_3931115.jpg"
"142","2","experienced",6,42,"non-blast","easy","non-blast",0.609,"nonBlastEasy/ER0944_046.jpg"
"143","2","experienced",6,43,"non-blast","hard","non-blast",3.815,"nonBlastHard/LY_4536057.jpg"
"144","2","experienced",6,44,"blast","hard","blast",0.583,"blastHard/BL_12930089.jpg"
"145","2","experienced",6,45,"blast","hard","blast",0.945,"blastHard/BL_1121494.jpg"
"146","2","experienced",6,46,"non-blast","hard","non-blast",0.781,"nonBlastHard/VLY_23416215.jpg"
"147","2","experienced",6,47,"non-blast","easy","non-blast",0.546,"nonBlastEasy/16258001115A_067.jpg"
"148","2","experienced",6,48,"non-blast","hard","blast",0.869,"nonBlastHard/LY_4462474.jpg"
"149","2","experienced",6,49,"non-blast","easy","non-blast",0.504,"nonBlastEasy/SNE_25598463.jpg"
"150","2","experienced",6,50,"blast","hard","blast",0.547,"blastHard/OTH_24746677.jpg"
"151","2","experienced",6,51,"non-blast","hard","blast",0.888,"nonBlastHard/BL_11504083.jpg"
"152","2","experienced",6,52,"non-blast","hard","non-blast",3.345,"nonBlastHard/16258001115A_044.jpg"
"153","2","experienced",6,53,"blast","easy","blast",0.54,"blastEasy/BL_10166384.jpg"
"154","2","experienced",6,54,"non-blast","hard","blast",3.914,"nonBlastHard/PC_4237886.jpg"
"155","2","experienced",6,55,"blast","hard","blast",0.654,"blastHard/BL_21964458.jpg"
"156","2","experienced",6,56,"blast","easy","blast",0.574,"blastEasy/BL_1121443.jpg"
"157","2","experienced",6,57,"blast","easy","blast",0.549,"blastEasy/OTH_20188283.jpg"
"158","2","experienced",6,58,"non-blast","easy","non-blast",1.286,"nonBlastEasy/LY_10021359.jpg"
"159","2","experienced",6,59,"non-blast","easy","non-blast",0.531,"nonBlastEasy/LY_8271951.jpg"
"160","2","experienced",6,60,"blast","hard","blast",0.689,"blastHard/BL_1199925.jpg"
"161","2","experienced",6,61,"blast","easy","blast",0.536,"blastEasy/BL_2256018.jpg"
"162","2","experienced",6,62,"blast","hard","blast",4.6,"blastHard/VLY_9310359.jpg"
"163","2","experienced",6,63,"blast","easy","blast",0.647,"blastEasy/BL_10020433.jpg"
"164","2","experienced",6,64,"non-blast","hard","blast",1.746,"nonBlastHard/PMY_9295594.jpg"
"165","2","experienced",6,65,"non-blast","hard","non-blast",2.359,"nonBlastHard/LY_4461956.jpg"
"166","2","experienced",6,66,"blast","easy","blast",0.624,"blastEasy/OTH_216294.jpg"
"167","2","experienced",6,67,"non-blast","easy","non-blast",0.592,"nonBlastEasy/LY_2010569.jpg"
"168","2","experienced",6,68,"non-blast","hard","non-blast",0.687,"nonBlastHard/MY_9458406.jpg"
"169","2","experienced",6,69,"non-blast","hard","blast",1.762,"nonBlastHard/VLY_9446390.jpg"
"170","2","experienced",6,70,"blast","hard","blast",1.151,"blastHard/BL_21818179.jpg"
"171","2","experienced",6,71,"blast","hard","blast",2.279,"blastHard/BL_10166337.jpg"
"172","2","experienced",6,72,"non-blast","easy","non-blast",0.535,"nonBlastEasy/16258001115A_017.jpg"
"173","2","experienced",6,73,"non-blast","hard","non-blast",1.685,"nonBlastHard/BL_21818131.jpg"
"174","2","experienced",6,74,"blast","easy","blast",0.663,"blastEasy/BL_10020442.jpg"
"175","2","experienced",6,75,"blast","hard","blast",0.647,"blastHard/BL_899899.jpg"
"176","2","experienced",6,76,"blast","hard","blast",1.12,"blastHard/BL_12930109.jpg"
"177","2","experienced",6,77,"non-blast","hard","non-blast",0.76,"nonBlastHard/MMY_10101282.jpg"
"178","2","experienced",6,78,"blast","hard","blast",0.654,"blastHard/OTH_12288133.jpg"
"179","2","experienced",6,79,"non-blast","hard","non-blast",1.343,"nonBlastHard/16253007354A_009.jpg"
"180","2","experienced",6,80,"non-blast","easy","non-blast",0.606,"nonBlastEasy/ER0944_035.jpg"
"181","2","experienced",6,81,"blast","hard","blast",0.806,"blastHard/BL_3931090.jpg"
"182","2","experienced",6,82,"non-blast","easy","non-blast",0.563,"nonBlastEasy/16258001115A_005.jpg"
"183","2","experienced",6,83,"non-blast","hard","non-blast",1.123,"nonBlastHard/MO_10021198.jpg"
"184","2","experienced",6,84,"non-blast","easy","non-blast",1.175,"nonBlastEasy/MY_9113623.jpg"
"185","2","experienced",6,85,"non-blast","easy","non-blast",0.71,"nonBlastEasy/SNE_10020606.jpg"
"186","2","experienced",6,86,"non-blast","easy","non-blast",1.104,"nonBlastEasy/MO_22576495.jpg"
"187","2","experienced",6,87,"blast","hard","blast",0.671,"blastHard/OTH_23078449.jpg"
"188","2","experienced",6,88,"blast","hard","blast",1.054,"blastHard/BL_2038822.jpg"
"189","2","experienced",6,89,"blast","hard","blast",0.832,"blastHard/VLY_1120674.jpg"
"190","2","experienced",6,90,"blast","easy","blast",0.701,"blastEasy/BL_21930887.jpg"
"191","2","experienced",6,91,"non-blast","easy","non-blast",0.596,"nonBlastEasy/ER0944_075.jpg"
"192","2","experienced",6,92,"non-blast","hard","non-blast",0.854,"nonBlastHard/MMY_9450228.jpg"
"193","2","experienced",6,93,"non-blast","easy","non-blast",0.781,"nonBlastEasy/MO_22576415.jpg"
"194","2","experienced",6,94,"non-blast","hard","non-blast",1.014,"nonBlastHard/HC_9635.jpg"
"195","2","experienced",6,95,"blast","hard","blast",0.689,"blastHard/BL_26626171.jpg"
"196","2","experienced",6,96,"non-blast","hard","non-blast",0.886,"nonBlastHard/16253007354A_027.jpg"
"197","2","experienced",6,97,"blast","hard","blast",0.7,"blastHard/BL_4323236.jpg"
"198","2","experienced",6,98,"non-blast","hard","non-blast",1.559,"nonBlastHard/VLY_17643008.jpg"
"199","2","experienced",6,99,"blast","hard","blast",2.021,"blastHard/BL_4323243.jpg"
"200","2","experienced",6,100,"blast","easy","blast",0.588,"blastEasy/BL_12930032.jpg"
"201","6","experienced",1,1,"blast","hard","blast",0.581,"blastHard/BL_1121539.jpg"
"202","6","experienced",1,2,"non-blast","hard","non-blast",0.627,"nonBlastHard/MO_10021198.jpg"
"203","6","experienced",1,3,"non-blast","easy","non-blast",0.584,"nonBlastEasy/ER0944_038.jpg"
"204","6","experienced",1,4,"blast","hard","blast",0.568,"blastHard/OTH_24746677.jpg"
"205","6","experienced",1,5,"non-blast","easy","non-blast",0.539,"nonBlastEasy/SNE_10020536.jpg"
"206","6","experienced",1,6,"non-blast","hard","non-blast",0.77,"nonBlastHard/OTH_21927765.jpg"
"207","6","experienced",1,7,"blast","easy","blast",0.604,"blastEasy/OTH_21668177.jpg"
"208","6","experienced",1,8,"non-blast","hard","non-blast",0.981,"nonBlastHard/PMY_22823781.jpg"
"209","6","experienced",1,9,"non-blast","easy","non-blast",0.604,"nonBlastEasy/ER0944_025.jpg"
"210","6","experienced",1,10,"non-blast","hard","non-blast",0.858,"nonBlastHard/VLY_4605573.jpg"
"211","6","experienced",1,11,"non-blast","easy","non-blast",1.432,"nonBlastEasy/VLY_23416175.jpg"
"212","6","experienced",1,12,"non-blast","hard","non-blast",0.841,"nonBlastHard/MY_9450552.jpg"
"213","6","experienced",1,13,"non-blast","easy","non-blast",0.939,"nonBlastEasy/PC_6228.jpg"
"214","6","experienced",1,14,"blast","easy","blast",0.514,"blastEasy/BL_26626166.jpg"
"215","6","experienced",1,15,"blast","easy","blast",0.427,"blastEasy/BL_4062116.jpg"
"216","6","experienced",1,16,"non-blast","hard","blast",0.677,"nonBlastHard/USRWBC1_9913295.jpg"
"217","6","experienced",1,17,"non-blast","hard","non-blast",0.97,"nonBlastHard/VLY_2010536.jpg"
"218","6","experienced",1,18,"blast","hard","blast",0.527,"blastHard/BL_2256090.jpg"
"219","6","experienced",1,19,"non-blast","hard","non-blast",3.439,"nonBlastHard/BL_21818137.jpg"
"220","6","experienced",1,20,"non-blast","easy","non-blast",1.193,"nonBlastEasy/MO_22576495.jpg"
"221","6","experienced",1,21,"blast","easy","blast",0.615,"blastEasy/BL_24839843.jpg"
"222","6","experienced",1,22,"non-blast","easy","non-blast",0.57,"nonBlastEasy/ER0944_021.jpg"
"223","6","experienced",1,23,"non-blast","easy","non-blast",0.607,"nonBlastEasy/ER0944_013.jpg"
"224","6","experienced",1,24,"non-blast","easy","non-blast",0.645,"nonBlastEasy/SNE_25598556.jpg"
"225","6","experienced",1,25,"blast","easy","blast",0.563,"blastEasy/BL_10020442.jpg"
"226","6","experienced",1,26,"blast","easy","blast",0.613,"blastEasy/BL_14263216.jpg"
"227","6","experienced",1,27,"blast","hard","blast",3.51,"blastHard/PMY_10101268.jpg"
"228","6","experienced",1,28,"blast","hard","non-blast",1.548,"blastHard/16258001115A_003.jpg"
"229","6","experienced",1,29,"non-blast","hard","non-blast",0.901,"nonBlastHard/22638544_027.jpg"
"230","6","experienced",1,30,"non-blast","hard","non-blast",1.578,"nonBlastHard/LY_14363603.jpg"
"231","6","experienced",1,31,"non-blast","hard","non-blast",0.947,"nonBlastHard/MO_14163691.jpg"
"232","6","experienced",1,32,"non-blast","easy","non-blast",0.569,"nonBlastEasy/ER0944_076.jpg"
"233","6","experienced",1,33,"blast","easy","blast",0.642,"blastEasy/BL_2038856.jpg"
"234","6","experienced",1,34,"blast","hard","blast",0.556,"blastHard/BL_1121527.jpg"
"235","6","experienced",1,35,"non-blast","easy","non-blast",0.788,"nonBlastEasy/16258001115A_078.jpg"
"236","6","experienced",1,36,"blast","easy","blast",0.664,"blastEasy/BL_3931099.jpg"
"237","6","experienced",1,37,"blast","hard","blast",1.274,"blastHard/PLY_6097305.jpg"
"238","6","experienced",1,38,"blast","easy","blast",1.657,"blastEasy/BL_10020457.jpg"
"239","6","experienced",1,39,"non-blast","hard","non-blast",0.623,"nonBlastHard/HC_9634.jpg"
"240","6","experienced",1,40,"non-blast","hard","non-blast",2.136,"nonBlastHard/LY_4536057.jpg"
"241","6","experienced",1,41,"blast","easy","blast",0.611,"blastEasy/OTH_24746620.jpg"
"242","6","experienced",1,42,"blast","easy","blast",0.579,"blastEasy/BL_21930172.jpg"
"243","6","experienced",1,43,"blast","hard","blast",0.623,"blastHard/OTH_21856141.jpg"
"244","6","experienced",1,44,"blast","easy","blast",0.542,"blastEasy/OTH_20188283.jpg"
"245","6","experienced",1,45,"non-blast","easy","non-blast",0.586,"nonBlastEasy/SNE_25598565.jpg"
"246","6","experienced",1,46,"non-blast","hard","non-blast",0.615,"nonBlastHard/OTH_25092124.jpg"
"247","6","experienced",1,47,"non-blast","easy","non-blast",0.505,"nonBlastEasy/LY_2010584.jpg"
"248","6","experienced",1,48,"blast","easy","blast",0.541,"blastEasy/OTH_25263206.jpg"
"249","6","experienced",1,49,"blast","easy","non-blast",4.19,"blastEasy/BLL2.jpg"
"250","6","experienced",1,50,"non-blast","easy","non-blast",0.597,"nonBlastEasy/SNE_23013208.jpg"
"251","6","experienced",1,51,"non-blast","easy","non-blast",0.623,"nonBlastEasy/SNE_23013297.jpg"
"252","6","experienced",1,52,"blast","hard","blast",3.3,"blastHard/USRWBC1_4518050.jpg"
"253","6","experienced",1,53,"non-blast","easy","non-blast",0.575,"nonBlastEasy/ER0944_026.jpg"
"254","6","experienced",1,54,"non-blast","hard","non-blast",1.351,"nonBlastHard/VLY_1120658.jpg"
"255","6","experienced",1,55,"blast","hard","non-blast",2.336,"blastHard/BL_12930109.jpg"
"256","6","experienced",1,56,"blast","easy","blast",0.637,"blastEasy/BL_2256022.jpg"
"257","6","experienced",1,57,"non-blast","hard","non-blast",0.787,"nonBlastHard/LY_4462474.jpg"
"258","6","experienced",1,58,"non-blast","hard","non-blast",0.721,"nonBlastHard/MY_9455177.jpg"
"259","6","experienced",1,59,"blast","easy","blast",0.959,"blastEasy/OTH_12288137.jpg"
"260","6","experienced",1,60,"non-blast","easy","non-blast",0.572,"nonBlastEasy/ER0944_003.jpg"
"261","6","experienced",1,61,"blast","hard","blast",1.393,"blastHard/BL_12930050.jpg"
"262","6","experienced",1,62,"non-blast","hard","non-blast",1.264,"nonBlastHard/22638544_107.jpg"
"263","6","experienced",1,63,"non-blast","easy","non-blast",0.573,"nonBlastEasy/14228000751A_032.jpg"
"264","6","experienced",1,64,"blast","easy","blast",1.132,"blastEasy/AuerRod.jpg"
"265","6","experienced",1,65,"non-blast","easy","non-blast",0.692,"nonBlastEasy/14228000751A_054.jpg"
"266","6","experienced",1,66,"blast","hard","blast",0.612,"blastHard/BL_1200017.jpg"
"267","6","experienced",1,67,"blast","easy","blast",0.5,"blastEasy/BL_21964482.jpg"
"268","6","experienced",1,68,"blast","hard","non-blast",1.14,"blastHard/OTH_21675214.jpg"
"269","6","experienced",1,69,"blast","hard","blast",0.574,"blastHard/OTH_23078430.jpg"
"270","6","experienced",1,70,"blast","hard","blast",1.218,"blastHard/BL_1121444.jpg"
"271","6","experienced",1,71,"blast","easy","blast",0.551,"blastEasy/BL_1200010.jpg"
"272","6","experienced",1,72,"blast","hard","non-blast",0.651,"blastHard/BL_12930089.jpg"
"273","6","experienced",1,73,"blast","hard","blast",1.306,"blastHard/BL_3931115.jpg"
"274","6","experienced",1,74,"non-blast","easy","non-blast",0.585,"nonBlastEasy/ER0944_042.jpg"
"275","6","experienced",1,75,"blast","easy","blast",0.7,"blastEasy/OTH_12288093.jpg"
"276","6","experienced",1,76,"blast","easy","blast",1.01,"blastEasy/BL_24839952.jpg"
"277","6","experienced",1,77,"non-blast","easy","non-blast",0.596,"nonBlastEasy/LY_899979.jpg"
"278","6","experienced",1,78,"blast","hard","blast",0.728,"blastHard/BL_4323243.jpg"
"279","6","experienced",1,79,"blast","hard","blast",0.651,"blastHard/OTH_9719152.jpg"
"280","6","experienced",1,80,"non-blast","easy","non-blast",0.507,"nonBlastEasy/ER0944_045.jpg"
"281","6","experienced",1,81,"non-blast","hard","non-blast",2.468,"nonBlastHard/PC_27623562.jpg"
"282","6","experienced",1,82,"non-blast","hard","non-blast",1.267,"nonBlastHard/VLY_17642950.jpg"
"283","6","experienced",1,83,"blast","easy","blast",0.603,"blastEasy/BL_8544816.jpg"
"284","6","experienced",1,84,"non-blast","hard","non-blast",1.321,"nonBlastHard/OTH_22719199.jpg"
"285","6","experienced",1,85,"non-blast","hard","non-blast",0.945,"nonBlastHard/LY_4526300.jpg"
"286","6","experienced",1,86,"blast","easy","blast",0.726,"blastEasy/BL_12930032.jpg"
"287","6","experienced",1,87,"blast","hard","blast",0.593,"blastHard/BL_21964527.jpg"
"288","6","experienced",1,88,"non-blast","easy","non-blast",0.588,"nonBlastEasy/16258001115A_013.jpg"
"289","6","experienced",1,89,"blast","hard","blast",0.639,"blastHard/OTH_21675275.jpg"
"290","6","experienced",1,90,"blast","easy","blast",0.537,"blastEasy/OTH_12288098.jpg"
"291","6","experienced",1,91,"non-blast","easy","non-blast",0.602,"nonBlastEasy/SNE_374423.jpg"
"292","6","experienced",1,92,"non-blast","hard","non-blast",0.714,"nonBlastHard/VLY_9451032.jpg"
"293","6","experienced",1,93,"blast","hard","blast",2.366,"blastHard/PLY_6097217.jpg"
"294","6","experienced",1,94,"blast","hard","blast",0.6,"blastHard/OTH_12288133.jpg"
"295","6","experienced",1,95,"blast","hard","blast",1.875,"blastHard/BL_10166337.jpg"
"296","6","experienced",1,96,"blast","easy","blast",0.536,"blastEasy/BL_23549452.jpg"
"297","6","experienced",1,97,"non-blast","hard","non-blast",0.816,"nonBlastHard/MY_9458465.jpg"
"298","6","experienced",1,98,"non-blast","hard","non-blast",0.662,"nonBlastHard/MMY_10101248.jpg"
"299","6","experienced",1,99,"non-blast","easy","non-blast",0.583,"nonBlastEasy/LY_1314707.jpg"
"300","6","experienced",1,100,"blast","hard","blast",0.528,"blastHard/OTH_25092098.jpg"
"301","6","experienced",4,1,"non-blast","hard","non-blast",0.62,"nonBlastHard/MMY_9450228.jpg"
"302","6","experienced",4,2,"blast","hard","blast",0.798,"blastHard/OTH_23078394.jpg"
"303","6","experienced",4,3,"blast","easy","blast",0.581,"blastEasy/BL_4062100.jpg"
"304","6","experienced",4,4,"non-blast","hard","non-blast",0.786,"nonBlastHard/16258001115A_076.jpg"
"305","6","experienced",4,5,"blast","easy","blast",0.807,"blastEasy/BL_12930095.jpg"
"306","6","experienced",4,6,"non-blast","easy","non-blast",0.516,"nonBlastEasy/ER0944_012.jpg"
"307","6","experienced",4,7,"non-blast","easy","non-blast",0.564,"nonBlastEasy/ER0944_045.jpg"
"308","6","experienced",4,8,"blast","easy","blast",0.63,"blastEasy/OTH_20188283.jpg"
"309","6","experienced",4,9,"non-blast","easy","non-blast",0.738,"nonBlastEasy/VLY_4420447.jpg"
"310","6","experienced",4,10,"blast","easy","blast",0.564,"blastEasy/BL_10020433.jpg"
"311","6","experienced",4,11,"blast","easy","blast",0.65,"blastEasy/BL_21930890.jpg"
"312","6","experienced",4,12,"blast","hard","blast",0.628,"blastHard/BL_21964458.jpg"
"313","6","experienced",4,13,"non-blast","easy","non-blast",0.499,"nonBlastEasy/16258001115A_017.jpg"
"314","6","experienced",4,14,"non-blast","easy","non-blast",0.551,"nonBlastEasy/ER0944_044.jpg"
"315","6","experienced",4,15,"blast","hard","blast",0.614,"blastHard/BL_11637413.jpg"
"316","6","experienced",4,16,"non-blast","easy","non-blast",0.527,"nonBlastEasy/SNE_23013274.jpg"
"317","6","experienced",4,17,"non-blast","easy","non-blast",0.839,"nonBlastEasy/16258001115A_078.jpg"
"318","6","experienced",4,18,"non-blast","easy","non-blast",0.449,"nonBlastEasy/MO_14163624.jpg"
"319","6","experienced",4,19,"non-blast","hard","non-blast",0.619,"nonBlastHard/VLY_17643042.jpg"
"320","6","experienced",4,20,"blast","hard","blast",0.618,"blastHard/BL_2038838.jpg"
"321","6","experienced",4,21,"non-blast","easy","non-blast",0.451,"nonBlastEasy/SNE_25598556.jpg"
"322","6","experienced",4,22,"blast","hard","blast",0.868,"blastHard/OTH_21856094.jpg"
"323","6","experienced",4,23,"blast","easy","blast",0.572,"blastEasy/VLY_10022863.jpg"
"324","6","experienced",4,24,"non-blast","hard","non-blast",0.798,"nonBlastHard/BL_866501.jpg"
"325","6","experienced",4,25,"blast","easy","blast",0.529,"blastEasy/BL_4062115.jpg"
"326","6","experienced",4,26,"non-blast","hard","non-blast",0.635,"nonBlastHard/VLY_4817070.jpg"
"327","6","experienced",4,27,"non-blast","easy","non-blast",0.633,"nonBlastEasy/ER0944_021.jpg"
"328","6","experienced",4,28,"blast","hard","blast",0.668,"blastHard/BL_2256090.jpg"
"329","6","experienced",4,29,"blast","easy","blast",0.564,"blastEasy/BL_24839843.jpg"
"330","6","experienced",4,30,"blast","easy","blast",0.473,"blastEasy/BL_12930096.jpg"
"331","6","experienced",4,31,"non-blast","easy","non-blast",0.573,"nonBlastEasy/ER0944_035.jpg"
"332","6","experienced",4,32,"blast","easy","blast",0.739,"blastEasy/BL_21964460.jpg"
"333","6","experienced",4,33,"blast","hard","blast",0.67,"blastHard/BL_899899.jpg"
"334","6","experienced",4,34,"blast","hard","blast",0.603,"blastHard/BL_1121510.jpg"
"335","6","experienced",4,35,"blast","hard","blast",0.984,"blastHard/BL_12930089.jpg"
"336","6","experienced",4,36,"blast","hard","blast",0.734,"blastHard/BL_1200017.jpg"
"337","6","experienced",4,37,"blast","easy","blast",0.528,"blastEasy/OTH_12288131.jpg"
"338","6","experienced",4,38,"blast","easy","blast",0.424,"blastEasy/BL_8544816.jpg"
"339","6","experienced",4,39,"blast","easy","blast",0.576,"blastEasy/AuerRod.jpg"
"340","6","experienced",4,40,"blast","hard","blast",0.611,"blastHard/BL_12930109.jpg"
"341","6","experienced",4,41,"non-blast","hard","non-blast",0.65,"nonBlastHard/MY_9113646.jpg"
"342","6","experienced",4,42,"non-blast","easy","non-blast",0.508,"nonBlastEasy/14228000751A_032.jpg"
"343","6","experienced",4,43,"non-blast","hard","non-blast",1.028,"nonBlastHard/LY_14363603.jpg"
"344","6","experienced",4,44,"non-blast","hard","non-blast",0.574,"nonBlastHard/LY_4536057.jpg"
"345","6","experienced",4,45,"non-blast","easy","non-blast",0.507,"nonBlastEasy/LY_8271951.jpg"
"346","6","experienced",4,46,"blast","easy","blast",0.613,"blastEasy/BL_3931099.jpg"
"347","6","experienced",4,47,"blast","easy","blast",0.467,"blastEasy/BL_2256088.jpg"
"348","6","experienced",4,48,"blast","hard","blast",0.413,"blastHard/OTH_9719152.jpg"
"349","6","experienced",4,49,"non-blast","hard","non-blast",1.311,"nonBlastHard/VLY_23416187.jpg"
"350","6","experienced",4,50,"non-blast","hard","non-blast",0.758,"nonBlastHard/VLY_23416215.jpg"
"351","6","experienced",4,51,"non-blast","easy","non-blast",0.608,"nonBlastEasy/ER0944_010.jpg"
"352","6","experienced",4,52,"non-blast","easy","non-blast",0.631,"nonBlastEasy/LY_4598953.jpg"
"353","6","experienced",4,53,"blast","easy","blast",0.555,"blastEasy/BL_21930887.jpg"
"354","6","experienced",4,54,"blast","easy","blast",0.595,"blastEasy/BL_21964525.jpg"
"355","6","experienced",4,55,"non-blast","hard","non-blast",0.72,"nonBlastHard/MO_10021198.jpg"
"356","6","experienced",4,56,"blast","easy","blast",0.561,"blastEasy/OTH_25263205.jpg"
"357","6","experienced",4,57,"non-blast","hard","blast",0.478,"nonBlastHard/LY_24840929.jpg"
"358","6","experienced",4,58,"blast","hard","blast",0.462,"blastHard/BL_3931143.jpg"
"359","6","experienced",4,59,"blast","hard","blast",0.527,"blastHard/VLY_1120674.jpg"
"360","6","experienced",4,60,"blast","easy","blast",0.48,"blastEasy/BL_21930949.jpg"
"361","6","experienced",4,61,"blast","hard","blast",0.425,"blastHard/BL_21964467.jpg"
"362","6","experienced",4,62,"blast","hard","blast",0.453,"blastHard/OTH_21675313.jpg"
"363","6","experienced",4,63,"blast","hard","blast",0.432,"blastHard/BL_1121539.jpg"
"364","6","experienced",4,64,"blast","easy","blast",0.463,"blastEasy/BL_12930163.jpg"
"365","6","experienced",4,65,"non-blast","hard","non-blast",0.619,"nonBlastHard/BL_899866.jpg"
"366","6","experienced",4,66,"non-blast","easy","non-blast",0.524,"nonBlastEasy/ER0944_038.jpg"
"367","6","experienced",4,67,"blast","easy","blast",0.485,"blastEasy/BL_1121496.jpg"
"368","6","experienced",4,68,"non-blast","hard","non-blast",0.771,"nonBlastHard/VLY_17643038.jpg"
"369","6","experienced",4,69,"blast","hard","blast",0.672,"blastHard/BL_26626220.jpg"
"370","6","experienced",4,70,"blast","hard","blast",0.439,"blastHard/OTH_24746677.jpg"
"371","6","experienced",4,71,"non-blast","easy","non-blast",0.517,"nonBlastEasy/14228000751A_054.jpg"
"372","6","experienced",4,72,"non-blast","hard","non-blast",1.488,"nonBlastHard/VLY_4283274.jpg"
"373","6","experienced",4,73,"blast","hard","blast",0.532,"blastHard/BL_26626240.jpg"
"374","6","experienced",4,74,"non-blast","hard","non-blast",0.579,"nonBlastHard/VLY_17643008.jpg"
"375","6","experienced",4,75,"blast","easy","blast",0.503,"blastEasy/OTH_25263206.jpg"
"376","6","experienced",4,76,"non-blast","hard","non-blast",0.835,"nonBlastHard/LY_4537514.jpg"
"377","6","experienced",4,77,"blast","hard","blast",0.685,"blastHard/OTH_9820846.jpg"
"378","6","experienced",4,78,"non-blast","hard","non-blast",0.553,"nonBlastHard/ER0944_019.jpg"
"379","6","experienced",4,79,"blast","hard","blast",0.531,"blastHard/OTH_9820893.jpg"
"380","6","experienced",4,80,"blast","easy","blast",0.503,"blastEasy/BL_23546068.jpg"
"381","6","experienced",4,81,"non-blast","easy","non-blast",0.548,"nonBlastEasy/ER0944_025.jpg"
"382","6","experienced",4,82,"blast","hard","non-blast",1.879,"blastHard/OTH_216308.jpg"
"383","6","experienced",4,83,"non-blast","easy","non-blast",0.684,"nonBlastEasy/LY_10021352.jpg"
"384","6","experienced",4,84,"non-blast","easy","non-blast",0.575,"nonBlastEasy/ER0944_020.jpg"
"385","6","experienced",4,85,"non-blast","hard","blast",0.678,"nonBlastHard/USRWBC1_9913295.jpg"
"386","6","experienced",4,86,"non-blast","hard","non-blast",3.104,"nonBlastHard/VLY_17642950.jpg"
"387","6","experienced",4,87,"non-blast","easy","non-blast",0.536,"nonBlastEasy/16258001115A_015.jpg"
"388","6","experienced",4,88,"blast","hard","blast",1.293,"blastHard/BL_2038845.jpg"
"389","6","experienced",4,89,"non-blast","hard","blast",0.901,"nonBlastHard/VLY_9460918.jpg"
"390","6","experienced",4,90,"blast","easy","blast",0.517,"blastEasy/BL_21930172.jpg"
"391","6","experienced",4,91,"blast","easy","blast",0.512,"blastEasy/BL_7477512.jpg"
"392","6","experienced",4,92,"non-blast","hard","non-blast",0.578,"nonBlastHard/22638544_107.jpg"
"393","6","experienced",4,93,"non-blast","easy","non-blast",0.556,"nonBlastEasy/ER0944_098.jpg"
"394","6","experienced",4,94,"non-blast","hard","non-blast",0.734,"nonBlastHard/VLY_17642964.jpg"
"395","6","experienced",4,95,"non-blast","easy","non-blast",0.521,"nonBlastEasy/ER0944_007.jpg"
"396","6","experienced",4,96,"non-blast","hard","non-blast",0.555,"nonBlastHard/OTH_25092124.jpg"
"397","6","experienced",4,97,"non-blast","easy","non-blast",0.525,"nonBlastEasy/SNE_10020550.jpg"
"398","6","experienced",4,98,"blast","hard","blast",0.633,"blastHard/BL_23546038.jpg"
"399","6","experienced",4,99,"non-blast","easy","non-blast",0.567,"nonBlastEasy/SNE_374450.jpg"
"400","6","experienced",4,100,"non-blast","hard","non-blast",0.624,"nonBlastHard/OTH_21927765.jpg"
"401","7","experienced",2,1,"non-blast","easy","non-blast",0.641,"nonBlastEasy/ER0944_010.jpg"
"402","7","experienced",2,2,"blast","hard","blast",0.675,"blastHard/OTH_9820893.jpg"
"403","7","experienced",2,3,"non-blast","hard","non-blast",0.828,"nonBlastHard/VLY_23416215.jpg"
"404","7","experienced",2,4,"non-blast","easy","non-blast",1.276,"nonBlastEasy/LY_899980.jpg"
"405","7","experienced",2,5,"non-blast","easy","non-blast",0.636,"nonBlastEasy/14228000751A_054.jpg"
"406","7","experienced",2,6,"non-blast","easy","non-blast",0.629,"nonBlastEasy/ER0944_040.jpg"
"407","7","experienced",2,7,"blast","easy","blast",0.649,"blastEasy/BL_10020442.jpg"
"408","7","experienced",2,8,"blast","hard","non-blast",1.109,"blastHard/OTH_24746583.jpg"
"409","7","experienced",2,9,"non-blast","easy","non-blast",0.591,"nonBlastEasy/LY_2010584.jpg"
"410","7","experienced",2,10,"blast","hard","blast",0.884,"blastHard/OTH_24746609.jpg"
"411","7","experienced",2,11,"non-blast","easy","non-blast",0.63,"nonBlastEasy/LY_1314707.jpg"
"412","7","experienced",2,12,"non-blast","hard","non-blast",0.62,"nonBlastHard/VLY_17643008.jpg"
"413","7","experienced",2,13,"non-blast","easy","non-blast",0.667,"nonBlastEasy/PC_6228.jpg"
"414","7","experienced",2,14,"non-blast","hard","non-blast",1.094,"nonBlastHard/VLY_4522566.jpg"
"415","7","experienced",2,15,"non-blast","easy","non-blast",0.637,"nonBlastEasy/SNE_374450.jpg"
"416","7","experienced",2,16,"non-blast","easy","non-blast",0.953,"nonBlastEasy/MO_22576495.jpg"
"417","7","experienced",2,17,"non-blast","easy","non-blast",0.607,"nonBlastEasy/16258001115A_017.jpg"
"418","7","experienced",2,18,"non-blast","hard","blast",0.88,"nonBlastHard/OTH_25092124.jpg"
"419","7","experienced",2,19,"non-blast","hard","non-blast",0.943,"nonBlastHard/HC_9768.jpg"
"420","7","experienced",2,20,"non-blast","easy","non-blast",0.638,"nonBlastEasy/ER0944_003.jpg"
"421","7","experienced",2,21,"blast","hard","non-blast",0.805,"blastHard/BL_1121444.jpg"
"422","7","experienced",2,22,"non-blast","hard","non-blast",0.762,"nonBlastHard/MO_10021198.jpg"
"423","7","experienced",2,23,"non-blast","hard","non-blast",0.693,"nonBlastHard/MY_9455177.jpg"
"424","7","experienced",2,24,"blast","easy","blast",0.745,"blastEasy/BL_2256038.jpg"
"425","7","experienced",2,25,"blast","hard","blast",0.828,"blastHard/PMY_10101268.jpg"
"426","7","experienced",2,26,"blast","easy","blast",0.681,"blastEasy/BL_21930949.jpg"
"427","7","experienced",2,27,"blast","hard","blast",1.091,"blastHard/VLY_18470.jpg"
"428","7","experienced",2,28,"blast","hard","blast",0.718,"blastHard/PLY_6097217.jpg"
"429","7","experienced",2,29,"blast","easy","blast",0.948,"blastEasy/BL_21964482.jpg"
"430","7","experienced",2,30,"non-blast","easy","non-blast",0.56,"nonBlastEasy/ER0944_045.jpg"
"431","7","experienced",2,31,"non-blast","easy","non-blast",0.565,"nonBlastEasy/SNE_10020606.jpg"
"432","7","experienced",2,32,"blast","hard","blast",0.624,"blastHard/OTH_24746609.jpg"
"433","7","experienced",2,33,"blast","easy","blast",0.715,"blastEasy/BL_1121443.jpg"
"434","7","experienced",2,34,"non-blast","hard","non-blast",0.633,"nonBlastHard/MY_9449514.jpg"
"435","7","experienced",2,35,"non-blast","easy","non-blast",0.541,"nonBlastEasy/16258001115A_067.jpg"
"436","7","experienced",2,36,"blast","easy","blast",0.621,"blastEasy/BL_21930894.jpg"
"437","7","experienced",2,37,"non-blast","hard","blast",0.674,"nonBlastHard/BL_11504083.jpg"
"438","7","experienced",2,38,"non-blast","hard","non-blast",1.137,"nonBlastHard/BL_866501.jpg"
"439","7","experienced",2,39,"non-blast","easy","non-blast",0.73,"nonBlastEasy/16258001115A_078.jpg"
"440","7","experienced",2,40,"non-blast","hard","non-blast",0.882,"nonBlastHard/VLY_9446390.jpg"
"441","7","experienced",2,41,"blast","easy","blast",0.641,"blastEasy/BL_24839843.jpg"
"442","7","experienced",2,42,"blast","hard","blast",1.107,"blastHard/OTH_21675214.jpg"
"443","7","experienced",2,43,"blast","easy","blast",0.897,"blastEasy/BL_2256038.jpg"
"444","7","experienced",2,44,"blast","hard","blast",2.685,"blastHard/OTH_23078373.jpg"
"445","7","experienced",2,45,"non-blast","easy","non-blast",0.614,"nonBlastEasy/ER0944_041.jpg"
"446","7","experienced",2,46,"blast","hard","blast",0.594,"blastHard/VLY_1120674.jpg"
"447","7","experienced",2,47,"blast","hard","blast",0.782,"blastHard/BL_21964515.jpg"
"448","7","experienced",2,48,"non-blast","easy","non-blast",0.711,"nonBlastEasy/ER0944_026.jpg"
"449","7","experienced",2,49,"non-blast","easy","non-blast",0.651,"nonBlastEasy/SNE_25395286.jpg"
"450","7","experienced",2,50,"blast","hard","blast",0.611,"blastHard/OTH_25092098.jpg"
"451","7","experienced",2,51,"blast","easy","blast",0.692,"blastEasy/BL_10020393.jpg"
"452","7","experienced",2,52,"non-blast","hard","non-blast",0.761,"nonBlastHard/VLY_22576540.jpg"
"453","7","experienced",2,53,"blast","hard","non-blast",0.867,"blastHard/PMY_10101268.jpg"
"454","7","experienced",2,54,"non-blast","hard","non-blast",0.985,"nonBlastHard/ER0944_008.jpg"
"455","7","experienced",2,55,"non-blast","hard","non-blast",0.695,"nonBlastHard/PC_4237886.jpg"
"456","7","experienced",2,56,"non-blast","hard","non-blast",0.632,"nonBlastHard/VLY_4817070.jpg"
"457","7","experienced",2,57,"blast","easy","blast",1.006,"blastEasy/BL_3931099.jpg"
"458","7","experienced",2,58,"blast","hard","blast",1.091,"blastHard/BL_3931115.jpg"
"459","7","experienced",2,59,"blast","easy","blast",0.747,"blastEasy/BL_21964525.jpg"
"460","7","experienced",2,60,"blast","easy","blast",0.631,"blastEasy/BL_21930875.jpg"
"461","7","experienced",2,61,"blast","easy","blast",0.499,"blastEasy/BL_24839916.jpg"
"462","7","experienced",2,62,"blast","easy","blast",0.715,"blastEasy/BL_24839952.jpg"
"463","7","experienced",2,63,"non-blast","hard","non-blast",1.351,"nonBlastHard/MO_14163691.jpg"
"464","7","experienced",2,64,"blast","hard","non-blast",1.349,"blastHard/OTH_21675313.jpg"
"465","7","experienced",2,65,"blast","easy","blast",0.669,"blastEasy/BL_2256084.jpg"
"466","7","experienced",2,66,"blast","hard","blast",0.834,"blastHard/BL_11637390.jpg"
"467","7","experienced",2,67,"blast","hard","non-blast",1.811,"blastHard/VLY_9310359.jpg"
"468","7","experienced",2,68,"blast","easy","blast",0.666,"blastEasy/BL_24787500.jpg"
"469","7","experienced",2,69,"non-blast","easy","non-blast",0.613,"nonBlastEasy/ER0944_025.jpg"
"470","7","experienced",2,70,"non-blast","hard","blast",0.837,"nonBlastHard/LY_22328223.jpg"
"471","7","experienced",2,71,"blast","easy","blast",0.661,"blastEasy/OTH_23078425.jpg"
"472","7","experienced",2,72,"non-blast","hard","non-blast",1.536,"nonBlastHard/OTH_21675242.jpg"
"473","7","experienced",2,73,"non-blast","easy","non-blast",0.686,"nonBlastEasy/SNE_374423.jpg"
"474","7","experienced",2,74,"blast","easy","blast",0.693,"blastEasy/BL_10020457.jpg"
"475","7","experienced",2,75,"non-blast","hard","non-blast",1.087,"nonBlastHard/16258001115A_076.jpg"
"476","7","experienced",2,76,"non-blast","easy","non-blast",0.687,"nonBlastEasy/EO_10020866.jpg"
"477","7","experienced",2,77,"blast","hard","blast",0.74,"blastHard/BL_12930070.jpg"
"478","7","experienced",2,78,"blast","hard","blast",0.783,"blastHard/BL_2256090.jpg"
"479","7","experienced",2,79,"non-blast","hard","blast",0.594,"nonBlastHard/LY_4537514.jpg"
"480","7","experienced",2,80,"non-blast","easy","non-blast",0.636,"nonBlastEasy/ER0944_013.jpg"
"481","7","experienced",2,81,"blast","easy","blast",0.628,"blastEasy/BL_21964460.jpg"
"482","7","experienced",2,82,"non-blast","easy","non-blast",0.573,"nonBlastEasy/14228000751A_077.jpg"
"483","7","experienced",2,83,"blast","easy","blast",0.65,"blastEasy/BL_23546068.jpg"
"484","7","experienced",2,84,"blast","hard","blast",0.646,"blastHard/OTH_21856141.jpg"
"485","7","experienced",2,85,"non-blast","hard","non-blast",0.726,"nonBlastHard/VLY_4390697.jpg"
"486","7","experienced",2,86,"blast","hard","non-blast",1.219,"blastHard/BL_3931143.jpg"
"487","7","experienced",2,87,"non-blast","hard","non-blast",0.787,"nonBlastHard/VLY_1120658.jpg"
"488","7","experienced",2,88,"blast","hard","non-blast",1.476,"blastHard/BL_21818179.jpg"
"489","7","experienced",2,89,"non-blast","easy","non-blast",0.664,"nonBlastEasy/SNE_10020536.jpg"
"490","7","experienced",2,90,"blast","hard","blast",0.653,"blastHard/BL_21964467.jpg"
"491","7","experienced",2,91,"blast","hard","blast",0.731,"blastHard/OTH_9820893.jpg"
"492","7","experienced",2,92,"blast","easy","blast",0.713,"blastEasy/OTH_23078392.jpg"
"493","7","experienced",2,93,"blast","easy","blast",0.73,"blastEasy/BL_4062104.jpg"
"494","7","experienced",2,94,"blast","easy","blast",0.69,"blastEasy/BL_4062115.jpg"
"495","7","experienced",2,95,"blast","easy","blast",0.712,"blastEasy/OTH_12288098.jpg"
"496","7","experienced",2,96,"non-blast","hard","non-blast",0.609,"nonBlastHard/MMY_10101282.jpg"
"497","7","experienced",2,97,"non-blast","hard","non-blast",0.665,"nonBlastHard/PMY_9295594.jpg"
"498","7","experienced",2,98,"blast","easy","blast",1.014,"blastEasy/BL_1200010.jpg"
"499","7","experienced",2,99,"non-blast","easy","non-blast",0.583,"nonBlastEasy/ER0944_038.jpg"
"500","7","experienced",2,100,"non-blast","hard","non-blast",0.599,"nonBlastHard/PC_27623400.jpg"
"501","7","experienced",5,1,"non-blast","easy","non-blast",0.689,"nonBlastEasy/14228000751A_077.jpg"
"502","7","experienced",5,2,"non-blast","hard","non-blast",0.904,"nonBlastHard/MO_14163691.jpg"
"503","7","experienced",5,3,"blast","hard","blast",0.749,"blastHard/USRWBC1_4518050.jpg"
"504","7","experienced",5,4,"non-blast","easy","non-blast",0.709,"nonBlastEasy/16258001115A_015.jpg"
"505","7","experienced",5,5,"non-blast","hard","non-blast",0.672,"nonBlastHard/PMY_22823781.jpg"
"506","7","experienced",5,6,"blast","hard","blast",0.696,"blastHard/OTH_23078449.jpg"
"507","7","experienced",5,7,"non-blast","easy","non-blast",0.664,"nonBlastEasy/PC_18672.jpg"
"508","7","experienced",5,8,"non-blast","easy","non-blast",0.644,"nonBlastEasy/ER0944_044.jpg"
"509","7","experienced",5,9,"non-blast","hard","blast",0.946,"nonBlastHard/ER0944_019.jpg"
"510","7","experienced",5,10,"blast","easy","blast",0.692,"blastEasy/BL_21930949.jpg"
"511","7","experienced",5,11,"blast","hard","blast",0.711,"blastHard/OTH_12288082.jpg"
"512","7","experienced",5,12,"blast","hard","blast",0.719,"blastHard/BL_7477468.jpg"
"513","7","experienced",5,13,"blast","easy","blast",1.021,"blastEasy/BL_26626166.jpg"
"514","7","experienced",5,14,"non-blast","hard","non-blast",0.806,"nonBlastHard/VLY_4390697.jpg"
"515","7","experienced",5,15,"blast","easy","blast",0.62,"blastEasy/BL_4062116.jpg"
"516","7","experienced",5,16,"non-blast","hard","non-blast",0.603,"nonBlastHard/MY_9450552.jpg"
"517","7","experienced",5,17,"non-blast","hard","non-blast",0.647,"nonBlastHard/VLY_17643008.jpg"
"518","7","experienced",5,18,"blast","hard","blast",0.935,"blastHard/OTH_16204423.jpg"
"519","7","experienced",5,19,"non-blast","easy","non-blast",0.665,"nonBlastEasy/16258001115A_069.jpg"
"520","7","experienced",5,20,"non-blast","hard","non-blast",0.673,"nonBlastHard/PMY_9295594.jpg"
"521","7","experienced",5,21,"non-blast","hard","non-blast",0.704,"nonBlastHard/16253007354A_077.jpg"
"522","7","experienced",5,22,"blast","hard","blast",0.804,"blastHard/OTH_21675214.jpg"
"523","7","experienced",5,23,"blast","easy","blast",0.743,"blastEasy/BL_7477512.jpg"
"524","7","experienced",5,24,"non-blast","hard","non-blast",0.991,"nonBlastHard/LY_4536057.jpg"
"525","7","experienced",5,25,"blast","easy","blast",0.841,"blastEasy/OTH_25263206.jpg"
"526","7","experienced",5,26,"blast","hard","blast",0.855,"blastHard/BL_21818179.jpg"
"527","7","experienced",5,27,"blast","hard","blast",0.919,"blastHard/BL_3931143.jpg"
"528","7","experienced",5,28,"non-blast","hard","blast",1.012,"nonBlastHard/VLY_23416187.jpg"
"529","7","experienced",5,29,"non-blast","hard","non-blast",0.858,"nonBlastHard/16258001115A_036.jpg"
"530","7","experienced",5,30,"blast","hard","blast",0.777,"blastHard/BL_294395.jpg"
"531","7","experienced",5,31,"non-blast","hard","non-blast",1.074,"nonBlastHard/HC_9768.jpg"
"532","7","experienced",5,32,"blast","hard","blast",0.962,"blastHard/VLY_9310359.jpg"
"533","7","experienced",5,33,"blast","easy","blast",0.714,"blastEasy/BL_4062100.jpg"
"534","7","experienced",5,34,"non-blast","easy","non-blast",0.606,"nonBlastEasy/ER0944_035.jpg"
"535","7","experienced",5,35,"blast","hard","blast",0.624,"blastHard/OTH_24746677.jpg"
"536","7","experienced",5,36,"non-blast","hard","non-blast",0.852,"nonBlastHard/VLY_23416215.jpg"
"537","7","experienced",5,37,"non-blast","easy","non-blast",0.645,"nonBlastEasy/ER0944_012.jpg"
"538","7","experienced",5,38,"blast","easy","blast",0.663,"blastEasy/BL_12930032.jpg"
"539","7","experienced",5,39,"non-blast","easy","non-blast",0.582,"nonBlastEasy/LY_8271868.jpg"
"540","7","experienced",5,40,"blast","easy","blast",0.607,"blastEasy/BL_4062104.jpg"
"541","7","experienced",5,41,"blast","easy","blast",0.636,"blastEasy/BL_2256022.jpg"
"542","7","experienced",5,42,"blast","easy","blast",0.543,"blastEasy/BL_7477462.jpg"
"543","7","experienced",5,43,"non-blast","easy","non-blast",0.576,"nonBlastEasy/ER0944_011.jpg"
"544","7","experienced",5,44,"blast","easy","blast",0.561,"blastEasy/BL_4062116.jpg"
"545","7","experienced",5,45,"blast","hard","blast",0.658,"blastHard/BL_21964458.jpg"
"546","7","experienced",5,46,"non-blast","easy","non-blast",0.578,"nonBlastEasy/SNE_10020536.jpg"
"547","7","experienced",5,47,"non-blast","easy","non-blast",0.581,"nonBlastEasy/LY_8271951.jpg"
"548","7","experienced",5,48,"non-blast","hard","non-blast",0.782,"nonBlastHard/OTH_22719199.jpg"
"549","7","experienced",5,49,"non-blast","easy","non-blast",0.855,"nonBlastEasy/LY_10021352.jpg"
"550","7","experienced",5,50,"non-blast","hard","non-blast",0.956,"nonBlastHard/VLY_9451032.jpg"
"551","7","experienced",5,51,"blast","easy","blast",0.763,"blastEasy/BL_10166384.jpg"
"552","7","experienced",5,52,"blast","easy","blast",0.565,"blastEasy/BL_21930890.jpg"
"553","7","experienced",5,53,"blast","hard","blast",1.576,"blastHard/BL_1121510.jpg"
"554","7","experienced",5,54,"blast","easy","blast",0.641,"blastEasy/BL_1200010.jpg"
"555","7","experienced",5,55,"non-blast","hard","blast",1.022,"nonBlastHard/BL_21818137.jpg"
"556","7","experienced",5,56,"non-blast","hard","non-blast",0.696,"nonBlastHard/VLY_17642964.jpg"
"557","7","experienced",5,57,"blast","easy","blast",0.662,"blastEasy/BL_14263216.jpg"
"558","7","experienced",5,58,"blast","hard","blast",1.206,"blastHard/PLY_6097305.jpg"
"559","7","experienced",5,59,"non-blast","hard","blast",0.889,"nonBlastHard/OTH_25092124.jpg"
"560","7","experienced",5,60,"blast","hard","non-blast",0.676,"blastHard/BL_2038845.jpg"
"561","7","experienced",5,61,"blast","easy","blast",0.587,"blastEasy/BL_10020421.jpg"
"562","7","experienced",5,62,"non-blast","hard","non-blast",0.721,"nonBlastHard/MY_9458465.jpg"
"563","7","experienced",5,63,"blast","hard","non-blast",1.185,"blastHard/BL_1121539.jpg"
"564","7","experienced",5,64,"non-blast","easy","non-blast",0.627,"nonBlastEasy/ER0944_025.jpg"
"565","7","experienced",5,65,"non-blast","easy","non-blast",0.603,"nonBlastEasy/ER0944_042.jpg"
"566","7","experienced",5,66,"non-blast","easy","non-blast",0.473,"nonBlastEasy/ER0944_038.jpg"
"567","7","experienced",5,67,"blast","easy","blast",0.628,"blastEasy/BL_21964460.jpg"
"568","7","experienced",5,68,"non-blast","easy","non-blast",0.612,"nonBlastEasy/16258001115A_006.jpg"
"569","7","experienced",5,69,"non-blast","easy","non-blast",0.534,"nonBlastEasy/ER0944_026.jpg"
"570","7","experienced",5,70,"blast","hard","non-blast",1.301,"blastHard/BL_11637413.jpg"
"571","7","experienced",5,71,"non-blast","easy","non-blast",0.578,"nonBlastEasy/LY_899980.jpg"
"572","7","experienced",5,72,"blast","easy","blast",0.82,"blastEasy/BL_21930949.jpg"
"573","7","experienced",5,73,"non-blast","easy","non-blast",0.609,"nonBlastEasy/LY_1314707.jpg"
"574","7","experienced",5,74,"blast","hard","blast",0.712,"blastHard/BL_11637390.jpg"
"575","7","experienced",5,75,"blast","hard","blast",0.617,"blastHard/BL_2256090.jpg"
"576","7","experienced",5,76,"blast","easy","blast",0.997,"blastEasy/BL_23546068.jpg"
"577","7","experienced",5,77,"non-blast","easy","non-blast",0.573,"nonBlastEasy/16258001115A_005.jpg"
"578","7","experienced",5,78,"blast","easy","blast",0.588,"blastEasy/OTH_20188283.jpg"
"579","7","experienced",5,79,"blast","easy","blast",0.542,"blastEasy/OTH_25263205.jpg"
"580","7","experienced",5,80,"blast","hard","blast",0.717,"blastHard/OTH_9820965.jpg"
"581","7","experienced",5,81,"blast","easy","blast",0.699,"blastEasy/BL_1199993.jpg"
"582","7","experienced",5,82,"non-blast","easy","non-blast",0.586,"nonBlastEasy/SNE_25598556.jpg"
"583","7","experienced",5,83,"non-blast","hard","non-blast",1.307,"nonBlastHard/16258001115A_044.jpg"
"584","7","experienced",5,84,"non-blast","hard","blast",0.973,"nonBlastHard/LY_22328223.jpg"
"585","7","experienced",5,85,"blast","hard","blast",0.782,"blastHard/BL_21964515.jpg"
"586","7","experienced",5,86,"blast","hard","blast",0.778,"blastHard/BL_12930089.jpg"
"587","7","experienced",5,87,"blast","easy","blast",0.83,"blastEasy/BL_2256038.jpg"
"588","7","experienced",5,88,"blast","easy","blast",1.607,"blastEasy/BL_4062115.jpg"
"589","7","experienced",5,89,"non-blast","easy","non-blast",0.676,"nonBlastEasy/LY_4598953.jpg"
"590","7","experienced",5,90,"non-blast","hard","non-blast",0.578,"nonBlastHard/LY_4462474.jpg"
"591","7","experienced",5,91,"non-blast","easy","non-blast",0.565,"nonBlastEasy/SNE_25598463.jpg"
"592","7","experienced",5,92,"blast","hard","blast",0.824,"blastHard/BL_2038838.jpg"
"593","7","experienced",5,93,"non-blast","hard","non-blast",0.653,"nonBlastHard/MY_9113646.jpg"
"594","7","experienced",5,94,"non-blast","hard","non-blast",0.58,"nonBlastHard/OTH_21927765.jpg"
"595","7","experienced",5,95,"non-blast","easy","non-blast",0.504,"nonBlastEasy/LY_2010569.jpg"
"596","7","experienced",5,96,"blast","easy","blast",0.746,"blastEasy/OTH_21668177.jpg"
"597","7","experienced",5,97,"blast","hard","blast",0.685,"blastHard/BL_12930070.jpg"
"598","7","experienced",5,98,"non-blast","easy","non-blast",0.579,"nonBlastEasy/HC_9673.jpg"
"599","7","experienced",5,99,"non-blast","hard","non-blast",0.591,"nonBlastHard/MMY_10101248.jpg"
"600","7","experienced",5,100,"blast","hard","non-blast",0.647,"blastHard/BL_1121498.jpg"
"601","9","experienced",3,1,"blast","hard","blast",0.808,"blastHard/OTH_21675275.jpg"
"602","9","experienced",3,2,"blast","hard","blast",0.61,"blastHard/BL_10166337.jpg"
"603","9","experienced",3,3,"non-blast","hard","non-blast",1.114,"nonBlastHard/22638544_107.jpg"
"604","9","experienced",3,4,"non-blast","hard","non-blast",0.7,"nonBlastHard/16258001115A_036.jpg"
"605","9","experienced",3,5,"blast","hard","blast",1.465,"blastHard/16258001115A_003.jpg"
"606","9","experienced",3,6,"non-blast","hard","non-blast",0.843,"nonBlastHard/VLY_17643042.jpg"
"607","9","experienced",3,7,"non-blast","easy","non-blast",0.619,"nonBlastEasy/SNE_10020585.jpg"
"608","9","experienced",3,8,"non-blast","hard","non-blast",0.682,"nonBlastHard/LY_4461956.jpg"
"609","9","experienced",3,9,"blast","easy","blast",0.761,"blastEasy/BL_24839952.jpg"
"610","9","experienced",3,10,"blast","easy","blast",0.766,"blastEasy/BL_1121443.jpg"
"611","9","experienced",3,11,"blast","easy","blast",0.556,"blastEasy/BL_23549452.jpg"
"612","9","experienced",3,12,"blast","hard","blast",0.627,"blastHard/BL_866432.jpg"
"613","9","experienced",3,13,"non-blast","hard","non-blast",1.967,"nonBlastHard/LY_22328223.jpg"
"614","9","experienced",3,14,"blast","easy","blast",0.746,"blastEasy/BL_10020457.jpg"
"615","9","experienced",3,15,"non-blast","easy","non-blast",0.831,"nonBlastEasy/ER0944_013.jpg"
"616","9","experienced",3,16,"non-blast","hard","non-blast",0.857,"nonBlastHard/VLY_17642993.jpg"
"617","9","experienced",3,17,"non-blast","easy","non-blast",0.659,"nonBlastEasy/ER0944_035.jpg"
"618","9","experienced",3,18,"blast","easy","blast",0.705,"blastEasy/OTH_12288093.jpg"
"619","9","experienced",3,19,"blast","easy","blast",0.751,"blastEasy/BL_12930163.jpg"
"620","9","experienced",3,20,"blast","easy","blast",0.782,"blastEasy/BL_21930890.jpg"
"621","9","experienced",3,21,"blast","hard","blast",1.101,"blastHard/BL_1121498.jpg"
"622","9","experienced",3,22,"non-blast","easy","non-blast",0.708,"nonBlastEasy/ER0944_076.jpg"
"623","9","experienced",3,23,"blast","easy","blast",0.756,"blastEasy/OTH_21668177.jpg"
"624","9","experienced",3,24,"blast","hard","non-blast",1.339,"blastHard/BL_26626220.jpg"
"625","9","experienced",3,25,"blast","easy","blast",0.666,"blastEasy/BL_21930875.jpg"
"626","9","experienced",3,26,"blast","hard","blast",0.598,"blastHard/OTH_9820893.jpg"
"627","9","experienced",3,27,"blast","hard","blast",0.593,"blastHard/OTH_9719152.jpg"
"628","9","experienced",3,28,"blast","hard","blast",0.685,"blastHard/BL_866426.jpg"
"629","9","experienced",3,29,"non-blast","easy","non-blast",0.644,"nonBlastEasy/PC_18672.jpg"
"630","9","experienced",3,30,"blast","hard","blast",1.843,"blastHard/OTH_9820965.jpg"
"631","9","experienced",3,31,"blast","easy","blast",0.707,"blastEasy/BL_2256038.jpg"
"632","9","experienced",3,32,"non-blast","hard","non-blast",0.93,"nonBlastHard/VLY_4522566.jpg"
"633","9","experienced",3,33,"non-blast","hard","non-blast",1.44,"nonBlastHard/PC_4237901.jpg"
"634","9","experienced",3,34,"non-blast","hard","non-blast",2.36,"nonBlastHard/16253007354A_077.jpg"
"635","9","experienced",3,35,"blast","easy","blast",2.101,"blastEasy/BL_21930894.jpg"
"636","9","experienced",3,36,"non-blast","hard","blast",1.547,"nonBlastHard/BL_21818137.jpg"
"637","9","experienced",3,37,"blast","easy","blast",0.903,"blastEasy/OTH_25263206.jpg"
"638","9","experienced",3,38,"blast","hard","blast",1.309,"blastHard/BL_12930109.jpg"
"639","9","experienced",3,39,"non-blast","hard","non-blast",0.749,"nonBlastHard/MO_14163691.jpg"
"640","9","experienced",3,40,"non-blast","easy","non-blast",0.603,"nonBlastEasy/ER0944_012.jpg"
"641","9","experienced",3,41,"non-blast","easy","non-blast",0.592,"nonBlastEasy/16258001115A_005.jpg"
"642","9","experienced",3,42,"blast","hard","blast",0.641,"blastHard/OTH_23078430.jpg"
"643","9","experienced",3,43,"blast","easy","blast",0.809,"blastEasy/BL_24839843.jpg"
"644","9","experienced",3,44,"non-blast","easy","non-blast",0.658,"nonBlastEasy/SNE_10020606.jpg"
"645","9","experienced",3,45,"non-blast","easy","non-blast",0.687,"nonBlastEasy/ER0944_010.jpg"
"646","9","experienced",3,46,"non-blast","easy","non-blast",0.676,"nonBlastEasy/ER0944_047.jpg"
"647","9","experienced",3,47,"blast","easy","blast",1.577,"blastEasy/BL_10020442.jpg"
"648","9","experienced",3,48,"blast","easy","blast",0.688,"blastEasy/BL_4062116.jpg"
"649","9","experienced",3,49,"blast","easy","blast",0.966,"blastEasy/BL_1121496.jpg"
"650","9","experienced",3,50,"blast","hard","blast",0.961,"blastHard/BL_2256090.jpg"
"651","9","experienced",3,51,"non-blast","hard","non-blast",1.093,"nonBlastHard/VLY_9451032.jpg"
"652","9","experienced",3,52,"blast","hard","blast",1.749,"blastHard/OTH_12288082.jpg"
"653","9","experienced",3,53,"non-blast","hard","non-blast",1.303,"nonBlastHard/LY_4526300.jpg"
"654","9","experienced",3,54,"non-blast","hard","non-blast",4.342,"nonBlastHard/MY_9455143.jpg"
"655","9","experienced",3,55,"blast","easy","blast",0.778,"blastEasy/BL_12930095.jpg"
"656","9","experienced",3,56,"non-blast","hard","non-blast",1.656,"nonBlastHard/LY_4462474.jpg"
"657","9","experienced",3,57,"non-blast","easy","non-blast",0.641,"nonBlastEasy/HC_9673.jpg"
"658","9","experienced",3,58,"non-blast","hard","non-blast",0.638,"nonBlastHard/OTH_21927751.jpg"
"659","9","experienced",3,59,"blast","hard","blast",3.121,"blastHard/BL_23546133.jpg"
"660","9","experienced",3,60,"blast","easy","blast",0.812,"blastEasy/BL_21964482.jpg"
"661","9","experienced",3,61,"non-blast","easy","non-blast",0.617,"nonBlastEasy/ER0944_015.jpg"
"662","9","experienced",3,62,"non-blast","easy","non-blast",0.691,"nonBlastEasy/ER0944_021.jpg"
"663","9","experienced",3,63,"non-blast","easy","non-blast",0.624,"nonBlastEasy/16258001115A_012.jpg"
"664","9","experienced",3,64,"non-blast","hard","non-blast",3.574,"nonBlastHard/OTH_21675242.jpg"
"665","9","experienced",3,65,"non-blast","hard","non-blast",0.858,"nonBlastHard/MY_9458406.jpg"
"666","9","experienced",3,66,"non-blast","easy","non-blast",0.636,"nonBlastEasy/MO_14163624.jpg"
"667","9","experienced",3,67,"non-blast","easy","non-blast",0.577,"nonBlastEasy/SNE_23013297.jpg"
"668","9","experienced",3,68,"non-blast","easy","non-blast",0.522,"nonBlastEasy/SNE_10020536.jpg"
"669","9","experienced",3,69,"non-blast","hard","non-blast",1.088,"nonBlastHard/HC_9635.jpg"
"670","9","experienced",3,70,"blast","easy","blast",1.284,"blastEasy/OTH_21668256.jpg"
"671","9","experienced",3,71,"blast","easy","blast",0.631,"blastEasy/BL_23546068.jpg"
"672","9","experienced",3,72,"blast","easy","blast",1.478,"blastEasy/BL_3931099.jpg"
"673","9","experienced",3,73,"non-blast","hard","non-blast",1.897,"nonBlastHard/BL_866501.jpg"
"674","9","experienced",3,74,"non-blast","easy","non-blast",0.632,"nonBlastEasy/LY_2010569.jpg"
"675","9","experienced",3,75,"blast","hard","non-blast",0.717,"blastHard/OTH_24746677.jpg"
"676","9","experienced",3,76,"non-blast","hard","blast",1.118,"nonBlastHard/USRWBC1_9913295.jpg"
"677","9","experienced",3,77,"non-blast","easy","non-blast",0.763,"nonBlastEasy/ER0944_046.jpg"
"678","9","experienced",3,78,"blast","hard","blast",0.725,"blastHard/BL_294395.jpg"
"679","9","experienced",3,79,"non-blast","easy","non-blast",0.643,"nonBlastEasy/SNE_25395286.jpg"
"680","9","experienced",3,80,"non-blast","easy","non-blast",0.761,"nonBlastEasy/ER0944_004.jpg"
"681","9","experienced",3,81,"blast","hard","non-blast",4.411,"blastHard/BL_4323243.jpg"
"682","9","experienced",3,82,"blast","hard","blast",1.059,"blastHard/BL_1121494.jpg"
"683","9","experienced",3,83,"blast","hard","blast",0.781,"blastHard/BL_1121527.jpg"
"684","9","experienced",3,84,"non-blast","easy","non-blast",1.13,"nonBlastEasy/LY_2010584.jpg"
"685","9","experienced",3,85,"non-blast","hard","non-blast",0.804,"nonBlastHard/PMY_22823781.jpg"
"686","9","experienced",3,86,"blast","hard","blast",0.856,"blastHard/OTH_21856094.jpg"
"687","9","experienced",3,87,"blast","easy","blast",2.971,"blastEasy/BL_24839916.jpg"
"688","9","experienced",3,88,"blast","hard","blast",0.659,"blastHard/OTH_23078373.jpg"
"689","9","experienced",3,89,"blast","easy","blast",0.534,"blastEasy/OTH_24746572.jpg"
"690","9","experienced",3,90,"non-blast","easy","non-blast",0.594,"nonBlastEasy/16258001115A_017.jpg"
"691","9","experienced",3,91,"non-blast","hard","non-blast",0.803,"nonBlastHard/16258001115A_044.jpg"
"692","9","experienced",3,92,"blast","easy","blast",0.686,"blastEasy/BL_1200010.jpg"
"693","9","experienced",3,93,"non-blast","hard","non-blast",0.865,"nonBlastHard/16258001115A_046.jpg"
"694","9","experienced",3,94,"blast","hard","blast",0.958,"blastHard/BL_26626171.jpg"
"695","9","experienced",3,95,"blast","easy",NA,-0.001,"blastEasy/BL_2256018.jpg"
"696","9","experienced",3,96,"blast","hard","non-blast",3.208,"blastHard/BL_1121510.jpg"
"697","9","experienced",3,97,"non-blast","easy","non-blast",0.772,"nonBlastEasy/LY_4598953.jpg"
"698","9","experienced",3,98,"non-blast","easy","non-blast",0.732,"nonBlastEasy/LY_10021352.jpg"
"699","9","experienced",3,99,"non-blast","hard","blast",3.847,"nonBlastHard/OTH_25092124.jpg"
"700","9","experienced",3,100,"blast","hard","non-blast",1.645,"blastHard/OTH_21675203.jpg"
"701","9","experienced",6,1,"non-blast","easy","non-blast",0.694,"nonBlastEasy/LY_1314707.jpg"
"702","9","experienced",6,2,"non-blast","hard","non-blast",0.866,"nonBlastHard/22638544_027.jpg"
"703","9","experienced",6,3,"non-blast","easy","non-blast",0.574,"nonBlastEasy/ER0944_011.jpg"
"704","9","experienced",6,4,"blast","easy","blast",0.623,"blastEasy/BL_10020442.jpg"
"705","9","experienced",6,5,"non-blast","easy","non-blast",0.662,"nonBlastEasy/ER0944_075.jpg"
"706","9","experienced",6,6,"blast","hard","blast",0.774,"blastHard/BL_866432.jpg"
"707","9","experienced",6,7,"blast","easy","blast",0.661,"blastEasy/BL_1200010.jpg"
"708","9","experienced",6,8,"blast","hard","blast",0.701,"blastHard/OTH_21675275.jpg"
"709","9","experienced",6,9,"non-blast","hard","blast",0.627,"nonBlastHard/VLY_22576540.jpg"
"710","9","experienced",6,10,"non-blast","hard","blast",1.328,"nonBlastHard/VLY_4283274.jpg"
"711","9","experienced",6,11,"blast","easy","blast",1.438,"blastEasy/OTH_21668177.jpg"
"712","9","experienced",6,12,"non-blast","easy","non-blast",0.543,"nonBlastEasy/ER0944_010.jpg"
"713","9","experienced",6,13,"non-blast","hard","non-blast",1.419,"nonBlastHard/VLY_9460918.jpg"
"714","9","experienced",6,14,"non-blast","hard","non-blast",1.55,"nonBlastHard/BL_21818137.jpg"
"715","9","experienced",6,15,"non-blast","easy","non-blast",0.812,"nonBlastEasy/MY_9113623.jpg"
"716","9","experienced",6,16,"blast","easy","blast",0.663,"blastEasy/BL_23549452.jpg"
"717","9","experienced",6,17,"blast","easy","blast",0.677,"blastEasy/BL_12930095.jpg"
"718","9","experienced",6,18,"blast","hard","blast",0.746,"blastHard/BL_1200017.jpg"
"719","9","experienced",6,19,"non-blast","hard","non-blast",1.387,"nonBlastHard/PC_27623400.jpg"
"720","9","experienced",6,20,"blast","hard","blast",0.695,"blastHard/USRWBC1_4518050.jpg"
"721","9","experienced",6,21,"blast","easy","blast",0.638,"blastEasy/BL_7477462.jpg"
"722","9","experienced",6,22,"blast","easy","blast",0.61,"blastEasy/BL_21930949.jpg"
"723","9","experienced",6,23,"blast","easy","blast",0.623,"blastEasy/OTH_12288093.jpg"
"724","9","experienced",6,24,"blast","hard","blast",0.589,"blastHard/OTH_12288133.jpg"
"725","9","experienced",6,25,"non-blast","easy","non-blast",0.584,"nonBlastEasy/SNE_25598556.jpg"
"726","9","experienced",6,26,"non-blast","hard","blast",1.465,"nonBlastHard/LY_4537514.jpg"
"727","9","experienced",6,27,"blast","hard","blast",0.671,"blastHard/BL_1121444.jpg"
"728","9","experienced",6,28,"non-blast","hard","non-blast",1.147,"nonBlastHard/LY_14363603.jpg"
"729","9","experienced",6,29,"non-blast","easy","non-blast",0.625,"nonBlastEasy/ER0944_025.jpg"
"730","9","experienced",6,30,"blast","easy","blast",0.61,"blastEasy/BL_2256038.jpg"
"731","9","experienced",6,31,"non-blast","easy","non-blast",0.621,"nonBlastEasy/ER0944_007.jpg"
"732","9","experienced",6,32,"blast","hard","non-blast",0.859,"blastHard/OTH_21675203.jpg"
"733","9","experienced",6,33,"non-blast","easy","non-blast",0.599,"nonBlastEasy/SNE_10020550.jpg"
"734","9","experienced",6,34,"blast","hard","blast",0.96,"blastHard/OTH_25092098.jpg"
"735","9","experienced",6,35,"blast","hard","non-blast",1.018,"blastHard/BL_26626220.jpg"
"736","9","experienced",6,36,"blast","hard","blast",0.653,"blastHard/BL_21964467.jpg"
"737","9","experienced",6,37,"blast","hard","blast",0.682,"blastHard/BL_3931090.jpg"
"738","9","experienced",6,38,"non-blast","hard","non-blast",1.417,"nonBlastHard/HC_9634.jpg"
"739","9","experienced",6,39,"non-blast","easy","non-blast",0.714,"nonBlastEasy/IEO_25504204.jpg"
"740","9","experienced",6,40,"blast","easy","blast",0.682,"blastEasy/BL_2256018.jpg"
"741","9","experienced",6,41,"blast","easy","blast",0.795,"blastEasy/BL_21930172.jpg"
"742","9","experienced",6,42,"non-blast","easy","non-blast",0.653,"nonBlastEasy/ER0944_098.jpg"
"743","9","experienced",6,43,"blast","easy","blast",0.799,"blastEasy/BL_2038856.jpg"
"744","9","experienced",6,44,"non-blast","easy","non-blast",0.595,"nonBlastEasy/16258001115A_067.jpg"
"745","9","experienced",6,45,"blast","hard","blast",1.585,"blastHard/VLY_18460.jpg"
"746","9","experienced",6,46,"blast","hard","blast",4.054,"blastHard/BL_4323236.jpg"
"747","9","experienced",6,47,"blast","hard","blast",1.46,"blastHard/OTH_21856141.jpg"
"748","9","experienced",6,48,"blast","easy","blast",0.729,"blastEasy/BL_21964460.jpg"
"749","9","experienced",6,49,"non-blast","easy","non-blast",0.57,"nonBlastEasy/SNE_23013274.jpg"
"750","9","experienced",6,50,"non-blast","easy","non-blast",0.703,"nonBlastEasy/SNE_10020606.jpg"
"751","9","experienced",6,51,"non-blast","hard","non-blast",1.079,"nonBlastHard/16253007354A_009.jpg"
"752","9","experienced",6,52,"blast","easy","blast",0.826,"blastEasy/BL_24839952.jpg"
"753","9","experienced",6,53,"non-blast","hard","non-blast",1.025,"nonBlastHard/16253007354A_027.jpg"
"754","9","experienced",6,54,"blast","easy","blast",0.692,"blastEasy/BL_1199993.jpg"
"755","9","experienced",6,55,"non-blast","easy","non-blast",0.649,"nonBlastEasy/ER0944_013.jpg"
"756","9","experienced",6,56,"blast","easy","blast",0.662,"blastEasy/BL_24787500.jpg"
"757","9","experienced",6,57,"non-blast","easy","non-blast",0.9,"nonBlastEasy/VLY_23416175.jpg"
"758","9","experienced",6,58,"blast","hard","blast",0.772,"blastHard/BL_21964515.jpg"
"759","9","experienced",6,59,"non-blast","easy","non-blast",0.694,"nonBlastEasy/SNE_25395286.jpg"
"760","9","experienced",6,60,"non-blast","hard","non-blast",0.885,"nonBlastHard/22638544_107.jpg"
"761","9","experienced",6,61,"blast","easy","blast",0.732,"blastEasy/BL_4062100.jpg"
"762","9","experienced",6,62,"blast","easy","blast",0.724,"blastEasy/OTH_24746620.jpg"
"763","9","experienced",6,63,"non-blast","easy","non-blast",0.708,"nonBlastEasy/SNE_374450.jpg"
"764","9","experienced",6,64,"non-blast","hard","non-blast",1.685,"nonBlastHard/16258001115A_076.jpg"
"765","9","experienced",6,65,"blast","easy","blast",0.668,"blastEasy/OTH_216294.jpg"
"766","9","experienced",6,66,"blast","hard","blast",0.744,"blastHard/OTH_9820846.jpg"
"767","9","experienced",6,67,"blast","easy","blast",0.626,"blastEasy/BL_12930163.jpg"
"768","9","experienced",6,68,"non-blast","hard","non-blast",0.69,"nonBlastHard/MY_9458406.jpg"
"769","9","experienced",6,69,"non-blast","hard","non-blast",0.556,"nonBlastHard/MY_22823793.jpg"
"770","9","experienced",6,70,"non-blast","easy","non-blast",0.565,"nonBlastEasy/SNE_23013208.jpg"
"771","9","experienced",6,71,"blast","hard","blast",0.713,"blastHard/BL_2038822.jpg"
"772","9","experienced",6,72,"non-blast","easy","non-blast",0.58,"nonBlastEasy/14228000751A_032.jpg"
"773","9","experienced",6,73,"non-blast","hard","non-blast",1.535,"nonBlastHard/LY_22328223.jpg"
"774","9","experienced",6,74,"non-blast","hard","non-blast",0.734,"nonBlastHard/LY_4536057.jpg"
"775","9","experienced",6,75,"blast","hard","blast",0.807,"blastHard/BL_21818179.jpg"
"776","9","experienced",6,76,"non-blast","easy","non-blast",1.018,"nonBlastEasy/VLY_4420447.jpg"
"777","9","experienced",6,77,"non-blast","hard","non-blast",0.86,"nonBlastHard/ER0944_008.jpg"
"778","9","experienced",6,78,"non-blast","hard","non-blast",1.403,"nonBlastHard/16253007354A_077.jpg"
"779","9","experienced",6,79,"blast","easy","blast",0.634,"blastEasy/BL_2256022.jpg"
"780","9","experienced",6,80,"blast","hard",NA,-0.001,"blastHard/BL_1121510.jpg"
"781","9","experienced",6,81,"non-blast","hard","non-blast",0.892,"nonBlastHard/PMY_22823781.jpg"
"782","9","experienced",6,82,"blast","hard","blast",0.787,"blastHard/OTH_24746609.jpg"
"783","9","experienced",6,83,"blast","hard","non-blast",1.187,"blastHard/VLY_18470.jpg"
"784","9","experienced",6,84,"blast","hard","non-blast",0.888,"blastHard/BL_4323243.jpg"
"785","9","experienced",6,85,"blast","easy","blast",0.742,"blastEasy/VLY_10022863.jpg"
"786","9","experienced",6,86,"non-blast","hard","non-blast",0.687,"nonBlastHard/MY_9458465.jpg"
"787","9","experienced",6,87,"non-blast","hard","non-blast",1.103,"nonBlastHard/LY_4461956.jpg"
"788","9","experienced",6,88,"non-blast","easy","non-blast",0.664,"nonBlastEasy/ER0944_003.jpg"
"789","9","experienced",6,89,"blast","hard","blast",1.177,"blastHard/BL_1121539.jpg"
"790","9","experienced",6,90,"non-blast","easy","non-blast",0.632,"nonBlastEasy/SNE_23013297.jpg"
"791","9","experienced",6,91,"non-blast","easy","non-blast",1.112,"nonBlastEasy/LY_4598953.jpg"
"792","9","experienced",6,92,"non-blast","hard","non-blast",0.75,"nonBlastHard/OTH_22719199.jpg"
"793","9","experienced",6,93,"non-blast","hard","non-blast",1.839,"nonBlastHard/VLY_17643042.jpg"
"794","9","experienced",6,94,"blast","hard","blast",0.713,"blastHard/PLY_6097217.jpg"
"795","9","experienced",6,95,"blast","easy","blast",0.664,"blastEasy/OTH_9820870.jpg"
"796","9","experienced",6,96,"non-blast","hard","non-blast",1.872,"nonBlastHard/MY_9449514.jpg"
"797","9","experienced",6,97,"blast","easy","blast",0.806,"blastEasy/BL_14263216.jpg"
"798","9","experienced",6,98,"blast","hard","non-blast",0.96,"blastHard/BL_23546038.jpg"
"799","9","experienced",6,99,"non-blast","easy","non-blast",0.648,"nonBlastEasy/SNE_25598565.jpg"
"800","9","experienced",6,100,"blast","easy","blast",0.666,"blastEasy/AuerRod.jpg"
"801","12","experienced",3,1,"blast","hard","non-blast",2.057,"blastHard/16258001115A_003.jpg"
"802","12","experienced",3,2,"blast","easy","blast",0.609,"blastEasy/BL_10020457.jpg"
"803","12","experienced",3,3,"non-blast","hard","blast",0.873,"nonBlastHard/BL_11504083.jpg"
"804","12","experienced",3,4,"blast","hard","blast",0.799,"blastHard/BL_866432.jpg"
"805","12","experienced",3,5,"non-blast","hard","non-blast",1.663,"nonBlastHard/16258001115A_030.jpg"
"806","12","experienced",3,6,"blast","hard","blast",0.612,"blastHard/BL_4062135.jpg"
"807","12","experienced",3,7,"blast","hard","blast",0.705,"blastHard/BL_12930109.jpg"
"808","12","experienced",3,8,"blast","easy","blast",0.604,"blastEasy/BL_2256022.jpg"
"809","12","experienced",3,9,"blast","easy","blast",0.736,"blastEasy/OTH_21668177.jpg"
"810","12","experienced",3,10,"blast","easy","blast",0.58,"blastEasy/BL_4062158.jpg"
"811","12","experienced",3,11,"non-blast","hard","non-blast",0.63,"nonBlastHard/ER0944_008.jpg"
"812","12","experienced",3,12,"non-blast","easy","non-blast",0.64,"nonBlastEasy/ER0944_013.jpg"
"813","12","experienced",3,13,"blast","hard","blast",0.571,"blastHard/VLY_1120674.jpg"
"814","12","experienced",3,14,"blast","easy","blast",0.496,"blastEasy/BL_21930890.jpg"
"815","12","experienced",3,15,"blast","easy","blast",0.546,"blastEasy/BL_4062115.jpg"
"816","12","experienced",3,16,"non-blast","easy","non-blast",1.692,"nonBlastEasy/ER0944_004.jpg"
"817","12","experienced",3,17,"blast","easy","blast",0.618,"blastEasy/BL_1121496.jpg"
"818","12","experienced",3,18,"blast","easy","blast",0.61,"blastEasy/BL_12930095.jpg"
"819","12","experienced",3,19,"blast","hard","blast",0.526,"blastHard/BL_12930050.jpg"
"820","12","experienced",3,20,"blast","easy","blast",0.58,"blastEasy/OTH_24746620.jpg"
"821","12","experienced",3,21,"non-blast","hard","non-blast",0.762,"nonBlastHard/VLY_9446390.jpg"
"822","12","experienced",3,22,"blast","hard","blast",0.508,"blastHard/OTH_9719152.jpg"
"823","12","experienced",3,23,"non-blast","hard","non-blast",0.735,"nonBlastHard/MY_9458465.jpg"
"824","12","experienced",3,24,"blast","easy","blast",0.539,"blastEasy/BL_2256038.jpg"
"825","12","experienced",3,25,"blast","easy","blast",0.659,"blastEasy/BL_21964525.jpg"
"826","12","experienced",3,26,"non-blast","easy","non-blast",0.578,"nonBlastEasy/SNE_23013274.jpg"
"827","12","experienced",3,27,"blast","hard","blast",0.568,"blastHard/BL_1121444.jpg"
"828","12","experienced",3,28,"non-blast","easy","non-blast",1.34,"nonBlastEasy/16258001115A_078.jpg"
"829","12","experienced",3,29,"non-blast","easy","non-blast",0.659,"nonBlastEasy/SNE_374450.jpg"
"830","12","experienced",3,30,"non-blast","hard","blast",3.133,"nonBlastHard/BL_21818137.jpg"
"831","12","experienced",3,31,"non-blast","easy","non-blast",0.534,"nonBlastEasy/SNE_23013297.jpg"
"832","12","experienced",3,32,"non-blast","easy","non-blast",0.48,"nonBlastEasy/SNE_10020536.jpg"
"833","12","experienced",3,33,"blast","hard","blast",0.611,"blastHard/BL_3931143.jpg"
"834","12","experienced",3,34,"non-blast","easy","non-blast",0.526,"nonBlastEasy/16258001115A_006.jpg"
"835","12","experienced",3,35,"non-blast","easy","non-blast",1.324,"nonBlastEasy/ER0944_040.jpg"
"836","12","experienced",3,36,"blast","hard","blast",0.569,"blastHard/BL_1121510.jpg"
"837","12","experienced",3,37,"blast","hard","blast",0.499,"blastHard/BL_23546133.jpg"
"838","12","experienced",3,38,"blast","hard","blast",0.476,"blastHard/OTH_21675203.jpg"
"839","12","experienced",3,39,"non-blast","hard","non-blast",0.645,"nonBlastHard/PMY_22823781.jpg"
"840","12","experienced",3,40,"blast","hard","blast",0.666,"blastHard/BL_10166337.jpg"
"841","12","experienced",3,41,"blast","hard","non-blast",0.803,"blastHard/PLY_6097305.jpg"
"842","12","experienced",3,42,"non-blast","easy","non-blast",2.854,"nonBlastEasy/ER0944_005.jpg"
"843","12","experienced",3,43,"non-blast","hard","blast",0.739,"nonBlastHard/OTH_21675242.jpg"
"844","12","experienced",3,44,"non-blast","easy","non-blast",0.897,"nonBlastEasy/SNE_374423.jpg"
"845","12","experienced",3,45,"blast","easy","blast",0.69,"blastEasy/BL_21964482.jpg"
"846","12","experienced",3,46,"non-blast","hard","non-blast",0.839,"nonBlastHard/PC_27623562.jpg"
"847","12","experienced",3,47,"blast","hard","blast",0.727,"blastHard/OTH_21856141.jpg"
"848","12","experienced",3,48,"non-blast","hard","non-blast",1.756,"nonBlastHard/PC_4237901.jpg"
"849","12","experienced",3,49,"non-blast","easy","non-blast",0.549,"nonBlastEasy/EO_10020866.jpg"
"850","12","experienced",3,50,"non-blast","hard","blast",2.801,"nonBlastHard/PMY_9295594.jpg"
"851","12","experienced",3,51,"non-blast","easy","non-blast",0.657,"nonBlastEasy/MY_9113623.jpg"
"852","12","experienced",3,52,"blast","hard","blast",0.562,"blastHard/BL_1199925.jpg"
"853","12","experienced",3,53,"blast","easy","blast",0.528,"blastEasy/BL_7477450.jpg"
"854","12","experienced",3,54,"non-blast","easy","non-blast",0.53,"nonBlastEasy/SNE_25598463.jpg"
"855","12","experienced",3,55,"non-blast","easy","non-blast",0.534,"nonBlastEasy/16258001115A_017.jpg"
"856","12","experienced",3,56,"blast","easy","blast",0.624,"blastEasy/OTH_23078392.jpg"
"857","12","experienced",3,57,"non-blast","easy","non-blast",0.514,"nonBlastEasy/SNE_25598565.jpg"
"858","12","experienced",3,58,"non-blast","easy","non-blast",1.074,"nonBlastEasy/MO_22576495.jpg"
"859","12","experienced",3,59,"non-blast","easy","non-blast",0.61,"nonBlastEasy/ER0944_045.jpg"
"860","12","experienced",3,60,"blast","hard","blast",0.569,"blastHard/BL_11637413.jpg"
"861","12","experienced",3,61,"non-blast","easy","non-blast",0.485,"nonBlastEasy/SNE_25598556.jpg"
"862","12","experienced",3,62,"non-blast","hard","blast",0.523,"nonBlastHard/LY_24840929.jpg"
"863","12","experienced",3,63,"blast","hard","blast",0.604,"blastHard/BL_2038822.jpg"
"864","12","experienced",3,64,"non-blast","hard","blast",0.975,"nonBlastHard/LY_22328223.jpg"
"865","12","experienced",3,65,"non-blast","hard","non-blast",2.284,"nonBlastHard/MY_22823793.jpg"
"866","12","experienced",3,66,"blast","hard","blast",0.715,"blastHard/VLY_18470.jpg"
"867","12","experienced",3,67,"non-blast","hard","blast",0.831,"nonBlastHard/MMY_10101248.jpg"
"868","12","experienced",3,68,"non-blast","easy","non-blast",0.655,"nonBlastEasy/ER0944_003.jpg"
"869","12","experienced",3,69,"blast","easy","blast",0.532,"blastEasy/BL_14263216.jpg"
"870","12","experienced",3,70,"blast","easy","blast",0.456,"blastEasy/OTH_24746572.jpg"
"871","12","experienced",3,71,"blast","easy","blast",0.539,"blastEasy/BL_4062147.jpg"
"872","12","experienced",3,72,"non-blast","easy","non-blast",0.523,"nonBlastEasy/ER0944_015.jpg"
"873","12","experienced",3,73,"non-blast","hard","non-blast",1.796,"nonBlastHard/VLY_4283274.jpg"
"874","12","experienced",3,74,"blast","easy","blast",0.508,"blastEasy/BL_7477462.jpg"
"875","12","experienced",3,75,"blast","easy","blast",0.497,"blastEasy/BL_4062104.jpg"
"876","12","experienced",3,76,"non-blast","hard","non-blast",1.771,"nonBlastHard/MY_9458406.jpg"
"877","12","experienced",3,77,"non-blast","hard","non-blast",0.795,"nonBlastHard/16253007354A_077.jpg"
"878","12","experienced",3,78,"blast","easy","blast",0.711,"blastEasy/BL_12930096.jpg"
"879","12","experienced",3,79,"blast","hard","blast",0.545,"blastHard/BL_12930089.jpg"
"880","12","experienced",3,80,"blast","easy","blast",0.441,"blastEasy/BL_1199993.jpg"
"881","12","experienced",3,81,"non-blast","easy","non-blast",0.779,"nonBlastEasy/LY_899979.jpg"
"882","12","experienced",3,82,"blast","hard","blast",0.632,"blastHard/VLY_9310359.jpg"
"883","12","experienced",3,83,"blast","easy","blast",0.567,"blastEasy/BL_10020433.jpg"
"884","12","experienced",3,84,"non-blast","hard","non-blast",0.702,"nonBlastHard/LY_4537514.jpg"
"885","12","experienced",3,85,"blast","hard","blast",0.654,"blastHard/BL_1121527.jpg"
"886","12","experienced",3,86,"non-blast","hard","blast",0.978,"nonBlastHard/LY_4461956.jpg"
"887","12","experienced",3,87,"non-blast","hard","non-blast",0.715,"nonBlastHard/VLY_9451032.jpg"
"888","12","experienced",3,88,"blast","easy","blast",0.599,"blastEasy/OTH_12288098.jpg"
"889","12","experienced",3,89,"non-blast","easy","non-blast",0.564,"nonBlastEasy/16258001115A_012.jpg"
"890","12","experienced",3,90,"non-blast","hard","non-blast",2.225,"nonBlastHard/VLY_22576540.jpg"
"891","12","experienced",3,91,"blast","hard","blast",0.709,"blastHard/USRWBC1_4518050.jpg"
"892","12","experienced",3,92,"non-blast","easy","non-blast",0.516,"nonBlastEasy/SNE_23013314.jpg"
"893","12","experienced",3,93,"non-blast","hard","non-blast",1.736,"nonBlastHard/VLY_23416187.jpg"
"894","12","experienced",3,94,"blast","easy","blast",0.502,"blastEasy/BL_21930949.jpg"
"895","12","experienced",3,95,"blast","hard","blast",0.892,"blastHard/PMY_10101268.jpg"
"896","12","experienced",3,96,"non-blast","hard","non-blast",0.883,"nonBlastHard/VLY_17642964.jpg"
"897","12","experienced",3,97,"blast","easy","blast",0.49,"blastEasy/BL_2256084.jpg"
"898","12","experienced",3,98,"blast","hard","blast",0.555,"blastHard/BL_21964467.jpg"
"899","12","experienced",3,99,"non-blast","easy","non-blast",0.508,"nonBlastEasy/SNE_10020550.jpg"
"900","12","experienced",3,100,"non-blast","hard","non-blast",1.22,"nonBlastHard/MY_9455177.jpg"
"901","12","experienced",6,1,"non-blast","easy","non-blast",0.663,"nonBlastEasy/16258001115A_015.jpg"
"902","12","experienced",6,2,"non-blast","easy","non-blast",0.468,"nonBlastEasy/SNE_25598565.jpg"
"903","12","experienced",6,3,"non-blast","easy","non-blast",0.473,"nonBlastEasy/SNE_25598463.jpg"
"904","12","experienced",6,4,"non-blast","hard","non-blast",0.431,"nonBlastHard/MMY_10101248.jpg"
"905","12","experienced",6,5,"non-blast","easy","non-blast",0.649,"nonBlastEasy/ER0944_026.jpg"
"906","12","experienced",6,6,"non-blast","hard","non-blast",0.844,"nonBlastHard/LY_4526300.jpg"
"907","12","experienced",6,7,"blast","hard","blast",0.507,"blastHard/BL_2038845.jpg"
"908","12","experienced",6,8,"blast","easy","blast",0.609,"blastEasy/OTH_21668256.jpg"
"909","12","experienced",6,9,"non-blast","easy","non-blast",0.511,"nonBlastEasy/SNE_25598556.jpg"
"910","12","experienced",6,10,"non-blast","easy","non-blast",0.666,"nonBlastEasy/VLY_4420447.jpg"
"911","12","experienced",6,11,"blast","hard","blast",0.781,"blastHard/BL_4323236.jpg"
"912","12","experienced",6,12,"non-blast","hard","blast",0.8,"nonBlastHard/MY_9450552.jpg"
"913","12","experienced",6,13,"blast","hard","blast",0.79,"blastHard/OTH_9820854.jpg"
"914","12","experienced",6,14,"non-blast","hard","non-blast",0.647,"nonBlastHard/OTH_22719199.jpg"
"915","12","experienced",6,15,"non-blast","hard","non-blast",1.942,"nonBlastHard/HC_9768.jpg"
"916","12","experienced",6,16,"non-blast","easy","non-blast",2.041,"nonBlastEasy/LY_1314707.jpg"
"917","12","experienced",6,17,"non-blast","hard","blast",1.082,"nonBlastHard/PC_27623400.jpg"
"918","12","experienced",6,18,"non-blast","easy","non-blast",0.742,"nonBlastEasy/LY_899979.jpg"
"919","12","experienced",6,19,"non-blast","easy","non-blast",1.356,"nonBlastEasy/ER0944_004.jpg"
"920","12","experienced",6,20,"blast","easy","blast",0.62,"blastEasy/BL_21964460.jpg"
"921","12","experienced",6,21,"blast","easy","blast",0.59,"blastEasy/BL_10020421.jpg"
"922","12","experienced",6,22,"blast","easy","blast",0.571,"blastEasy/BL_2256018.jpg"
"923","12","experienced",6,23,"non-blast","hard","blast",0.742,"nonBlastHard/LY_22328223.jpg"
"924","12","experienced",6,24,"blast","easy","blast",0.466,"blastEasy/BLL2.jpg"
"925","12","experienced",6,25,"blast","easy","blast",1.096,"blastEasy/OTH_23078425.jpg"
"926","12","experienced",6,26,"blast","easy","blast",0.636,"blastEasy/BL_1199993.jpg"
"927","12","experienced",6,27,"non-blast","easy","non-blast",0.615,"nonBlastEasy/SNE_25395286.jpg"
"928","12","experienced",6,28,"blast","hard","blast",0.665,"blastHard/OTH_9820893.jpg"
"929","12","experienced",6,29,"non-blast","easy","non-blast",0.522,"nonBlastEasy/EO_10020866.jpg"
"930","12","experienced",6,30,"blast","easy","blast",0.607,"blastEasy/BL_23546068.jpg"
"931","12","experienced",6,31,"non-blast","easy","non-blast",1.578,"nonBlastEasy/ER0944_076.jpg"
"932","12","experienced",6,32,"non-blast","hard","blast",2.277,"nonBlastHard/LY_4536057.jpg"
"933","12","experienced",6,33,"blast","easy","blast",0.589,"blastEasy/BL_21930887.jpg"
"934","12","experienced",6,34,"non-blast","hard","blast",0.617,"nonBlastHard/BL_899866.jpg"
"935","12","experienced",6,35,"blast","easy","blast",0.5,"blastEasy/BL_4062132.jpg"
"936","12","experienced",6,36,"non-blast","hard","blast",0.839,"nonBlastHard/MY_9449514.jpg"
"937","12","experienced",6,37,"blast","hard","blast",0.534,"blastHard/BL_12930109.jpg"
"938","12","experienced",6,38,"non-blast","hard","non-blast",1.402,"nonBlastHard/VLY_17643008.jpg"
"939","12","experienced",6,39,"non-blast","hard","non-blast",1.215,"nonBlastHard/PMY_22823781.jpg"
"940","12","experienced",6,40,"non-blast","hard","non-blast",0.735,"nonBlastHard/MY_9455143.jpg"
"941","12","experienced",6,41,"non-blast","easy","non-blast",0.654,"nonBlastEasy/16258001115A_017.jpg"
"942","12","experienced",6,42,"non-blast","easy","non-blast",0.49,"nonBlastEasy/ER0944_098.jpg"
"943","12","experienced",6,43,"blast","hard","non-blast",1.426,"blastHard/BL_2038822.jpg"
"944","12","experienced",6,44,"blast","hard","blast",0.68,"blastHard/VLY_9310359.jpg"
"945","12","experienced",6,45,"blast","hard","blast",0.641,"blastHard/BL_4062135.jpg"
"946","12","experienced",6,46,"non-blast","easy","non-blast",0.685,"nonBlastEasy/ER0944_015.jpg"
"947","12","experienced",6,47,"non-blast","hard","blast",0.566,"nonBlastHard/16258001115A_076.jpg"
"948","12","experienced",6,48,"blast","easy","blast",0.579,"blastEasy/BL_4323220.jpg"
"949","12","experienced",6,49,"non-blast","easy","blast",2.633,"nonBlastEasy/LY_10021359.jpg"
"950","12","experienced",6,50,"blast","hard","blast",0.746,"blastHard/PMY_10101268.jpg"
"951","12","experienced",6,51,"blast","hard","blast",0.753,"blastHard/BL_1121539.jpg"
"952","12","experienced",6,52,"blast","hard","blast",0.763,"blastHard/BL_1121498.jpg"
"953","12","experienced",6,53,"blast","easy","blast",0.77,"blastEasy/BL_21930172.jpg"
"954","12","experienced",6,54,"blast","hard","blast",0.594,"blastHard/OTH_23078373.jpg"
"955","12","experienced",6,55,"blast","hard","blast",0.541,"blastHard/OTH_23078430.jpg"
"956","12","experienced",6,56,"non-blast","hard","non-blast",0.655,"nonBlastHard/MO_14163691.jpg"
"957","12","experienced",6,57,"blast","hard","blast",0.495,"blastHard/BL_1121527.jpg"
"958","12","experienced",6,58,"blast","hard","blast",0.552,"blastHard/BL_866426.jpg"
"959","12","experienced",6,59,"blast","easy","blast",0.457,"blastEasy/BL_7477462.jpg"
"960","12","experienced",6,60,"non-blast","easy","non-blast",0.888,"nonBlastEasy/VLY_23416175.jpg"
"961","12","experienced",6,61,"blast","hard","blast",0.723,"blastHard/BL_26626220.jpg"
"962","12","experienced",6,62,"blast","hard","blast",0.682,"blastHard/BL_294395.jpg"
"963","12","experienced",6,63,"non-blast","easy","non-blast",0.577,"nonBlastEasy/MO_14163624.jpg"
"964","12","experienced",6,64,"blast","easy","blast",0.578,"blastEasy/BL_14263216.jpg"
"965","12","experienced",6,65,"non-blast","easy","non-blast",0.676,"nonBlastEasy/ER0944_040.jpg"
"966","12","experienced",6,66,"non-blast","hard","non-blast",0.93,"nonBlastHard/VLY_17642979.jpg"
"967","12","experienced",6,67,"non-blast","hard","non-blast",2.31,"nonBlastHard/USRWBC1_9913295.jpg"
"968","12","experienced",6,68,"non-blast","easy","non-blast",0.569,"nonBlastEasy/SNE_23013208.jpg"
"969","12","experienced",6,69,"blast","hard","blast",0.717,"blastHard/OTH_21675275.jpg"
"970","12","experienced",6,70,"blast","easy","blast",0.542,"blastEasy/BL_2256088.jpg"
"971","12","experienced",6,71,"blast","hard","blast",0.898,"blastHard/OTH_16204423.jpg"
"972","12","experienced",6,72,"blast","easy","blast",0.451,"blastEasy/BL_21930949.jpg"
"973","12","experienced",6,73,"blast","hard","blast",0.563,"blastHard/VLY_1120674.jpg"
"974","12","experienced",6,74,"blast","hard","non-blast",0.967,"blastHard/PLY_6097217.jpg"
"975","12","experienced",6,75,"non-blast","easy","non-blast",0.687,"nonBlastEasy/LY_10021352.jpg"
"976","12","experienced",6,76,"non-blast","easy","non-blast",0.595,"nonBlastEasy/SNE_23013274.jpg"
"977","12","experienced",6,77,"blast","easy","blast",0.626,"blastEasy/OTH_9820870.jpg"
"978","12","experienced",6,78,"blast","easy","blast",0.614,"blastEasy/BL_24839952.jpg"
"979","12","experienced",6,79,"non-blast","hard","non-blast",1.375,"nonBlastHard/ER0944_019.jpg"
"980","12","experienced",6,80,"non-blast","easy","non-blast",0.614,"nonBlastEasy/ER0944_005.jpg"
"981","12","experienced",6,81,"non-blast","easy","non-blast",0.644,"nonBlastEasy/LY_8271868.jpg"
"982","12","experienced",6,82,"non-blast","hard","blast",0.99,"nonBlastHard/16258001115A_046.jpg"
"983","12","experienced",6,83,"blast","hard","blast",0.568,"blastHard/BL_11637413.jpg"
"984","12","experienced",6,84,"non-blast","easy","non-blast",0.641,"nonBlastEasy/ER0944_003.jpg"
"985","12","experienced",6,85,"blast","easy","blast",0.488,"blastEasy/BL_10020442.jpg"
"986","12","experienced",6,86,"non-blast","hard","non-blast",0.721,"nonBlastHard/16253007354A_077.jpg"
"987","12","experienced",6,87,"non-blast","hard","non-blast",1.671,"nonBlastHard/ER0944_008.jpg"
"988","12","experienced",6,88,"blast","hard","blast",0.564,"blastHard/OTH_9719152.jpg"
"989","12","experienced",6,89,"non-blast","hard","blast",1.009,"nonBlastHard/MMY_10101282.jpg"
"990","12","experienced",6,90,"blast","easy","blast",0.522,"blastEasy/BL_24839843.jpg"
"991","12","experienced",6,91,"blast","hard","blast",0.587,"blastHard/OTH_23078449.jpg"
"992","12","experienced",6,92,"blast","hard","blast",0.573,"blastHard/BL_12930070.jpg"
"993","12","experienced",6,93,"blast","easy","blast",0.579,"blastEasy/BL_10020393.jpg"
"994","12","experienced",6,94,"blast","easy","blast",0.658,"blastEasy/OTH_12288137.jpg"
"995","12","experienced",6,95,"non-blast","hard","non-blast",0.812,"nonBlastHard/16253007354A_009.jpg"
"996","12","experienced",6,96,"non-blast","hard","non-blast",0.922,"nonBlastHard/VLY_9446390.jpg"
"997","12","experienced",6,97,"blast","easy","blast",0.629,"blastEasy/BL_21930890.jpg"
"998","12","experienced",6,98,"blast","easy","blast",0.595,"blastEasy/OTH_24746572.jpg"
"999","12","experienced",6,99,"non-blast","hard","blast",0.999,"nonBlastHard/OTH_25092124.jpg"
"1000","12","experienced",6,100,"blast","easy","blast",0.543,"blastEasy/BL_1121496.jpg"
"1001","14","experienced",3,1,"blast","easy","blast",1.479,"blastEasy/BL_7477450.jpg"
"1002","14","experienced",3,2,"blast","hard","blast",0.627,"blastHard/VLY_1120674.jpg"
"1003","14","experienced",3,3,"non-blast","hard","non-blast",1.375,"nonBlastHard/22638544_107.jpg"
"1004","14","experienced",3,4,"non-blast","easy","blast",0.689,"nonBlastEasy/ER0944_035.jpg"
"1005","14","experienced",3,5,"non-blast","easy","non-blast",0.874,"nonBlastEasy/VLY_23416175.jpg"
"1006","14","experienced",3,6,"blast","easy","blast",0.549,"blastEasy/OTH_216294.jpg"
"1007","14","experienced",3,7,"non-blast","hard","non-blast",1.098,"nonBlastHard/VLY_4605573.jpg"
"1008","14","experienced",3,8,"non-blast","hard","blast",2.609,"nonBlastHard/VLY_17642950.jpg"
"1009","14","experienced",3,9,"non-blast","easy","non-blast",1.683,"nonBlastEasy/16258001115A_078.jpg"
"1010","14","experienced",3,10,"blast","hard","blast",0.644,"blastHard/VLY_18470.jpg"
"1011","14","experienced",3,11,"blast","easy","blast",0.556,"blastEasy/OTH_12288131.jpg"
"1012","14","experienced",3,12,"blast","easy","blast",0.551,"blastEasy/BL_10020393.jpg"
"1013","14","experienced",3,13,"non-blast","hard","non-blast",0.669,"nonBlastHard/ER0944_019.jpg"
"1014","14","experienced",3,14,"blast","easy","blast",0.629,"blastEasy/OTH_9820870.jpg"
"1015","14","experienced",3,15,"non-blast","easy","non-blast",0.866,"nonBlastEasy/ER0944_020.jpg"
"1016","14","experienced",3,16,"blast","easy","blast",0.673,"blastEasy/OTH_12288083.jpg"
"1017","14","experienced",3,17,"non-blast","easy","non-blast",1.033,"nonBlastEasy/LY_2010584.jpg"
"1018","14","experienced",3,18,"non-blast","hard","blast",1.061,"nonBlastHard/16258001115A_046.jpg"
"1019","14","experienced",3,19,"non-blast","easy","non-blast",0.915,"nonBlastEasy/LY_899979.jpg"
"1020","14","experienced",3,20,"non-blast","hard","non-blast",1.199,"nonBlastHard/MY_9458465.jpg"
"1021","14","experienced",3,21,"blast","hard","blast",0.771,"blastHard/BL_24839872.jpg"
"1022","14","experienced",3,22,"blast","hard","blast",0.619,"blastHard/OTH_9719152.jpg"
"1023","14","experienced",3,23,"non-blast","hard","non-blast",0.804,"nonBlastHard/PMY_9295594.jpg"
"1024","14","experienced",3,24,"non-blast","easy","non-blast",0.87,"nonBlastEasy/ER0944_044.jpg"
"1025","14","experienced",3,25,"non-blast","hard","non-blast",1.002,"nonBlastHard/VLY_4283274.jpg"
"1026","14","experienced",3,26,"non-blast","hard","non-blast",1.073,"nonBlastHard/VLY_4390697.jpg"
"1027","14","experienced",3,27,"blast","easy","blast",0.566,"blastEasy/BL_4062158.jpg"
"1028","14","experienced",3,28,"non-blast","hard","non-blast",0.573,"nonBlastHard/MMY_10101248.jpg"
"1029","14","experienced",3,29,"blast","hard","blast",1.362,"blastHard/16258001115A_003.jpg"
"1030","14","experienced",3,30,"blast","hard","blast",1.405,"blastHard/BL_1121494.jpg"
"1031","14","experienced",3,31,"non-blast","hard","blast",1.671,"nonBlastHard/VLY_17643038.jpg"
"1032","14","experienced",3,32,"non-blast","hard","blast",0.644,"nonBlastHard/16253007354A_077.jpg"
"1033","14","experienced",3,33,"blast","hard","blast",0.631,"blastHard/OTH_21856094.jpg"
"1034","14","experienced",3,34,"blast","hard","non-blast",0.696,"blastHard/BL_4323243.jpg"
"1035","14","experienced",3,35,"non-blast","easy","non-blast",0.731,"nonBlastEasy/ER0944_025.jpg"
"1036","14","experienced",3,36,"non-blast","easy","non-blast",0.585,"nonBlastEasy/ER0944_075.jpg"
"1037","14","experienced",3,37,"blast","hard","blast",0.594,"blastHard/BL_21964467.jpg"
"1038","14","experienced",3,38,"non-blast","easy","non-blast",0.555,"nonBlastEasy/SNE_25598565.jpg"
"1039","14","experienced",3,39,"non-blast","hard","non-blast",0.941,"nonBlastHard/16258001115A_036.jpg"
"1040","14","experienced",3,40,"blast","hard","blast",0.586,"blastHard/OTH_24746677.jpg"
"1041","14","experienced",3,41,"blast","easy","blast",0.696,"blastEasy/BL_10020442.jpg"
"1042","14","experienced",3,42,"non-blast","easy","non-blast",0.506,"nonBlastEasy/SNE_10020585.jpg"
"1043","14","experienced",3,43,"blast","easy","blast",0.656,"blastEasy/OTH_9719205.jpg"
"1044","14","experienced",3,44,"blast","hard","blast",1.287,"blastHard/BL_3931143.jpg"
"1045","14","experienced",3,45,"non-blast","easy","non-blast",0.508,"nonBlastEasy/EO_10020866.jpg"
"1046","14","experienced",3,46,"non-blast","hard","non-blast",0.809,"nonBlastHard/MMY_9450228.jpg"
"1047","14","experienced",3,47,"blast","hard","blast",0.638,"blastHard/OTH_23078449.jpg"
"1048","14","experienced",3,48,"blast","easy","blast",0.663,"blastEasy/BL_4062116.jpg"
"1049","14","experienced",3,49,"blast","easy","blast",0.708,"blastEasy/BL_1199993.jpg"
"1050","14","experienced",3,50,"blast","hard","blast",0.919,"blastHard/BL_4062097.jpg"
"1051","14","experienced",3,51,"non-blast","easy","non-blast",0.432,"nonBlastEasy/16258001115A_005.jpg"
"1052","14","experienced",3,52,"non-blast","easy","non-blast",0.926,"nonBlastEasy/LY_899980.jpg"
"1053","14","experienced",3,53,"non-blast","easy","non-blast",0.634,"nonBlastEasy/SNE_10020536.jpg"
"1054","14","experienced",3,54,"non-blast","hard","blast",1.175,"nonBlastHard/PC_27623400.jpg"
"1055","14","experienced",3,55,"blast","easy","blast",0.648,"blastEasy/BL_12930095.jpg"
"1056","14","experienced",3,56,"blast","hard","blast",0.55,"blastHard/BL_3931090.jpg"
"1057","14","experienced",3,57,"blast","hard","blast",1.725,"blastHard/BL_26626240.jpg"
"1058","14","experienced",3,58,"non-blast","hard","non-blast",1.718,"nonBlastHard/BL_866501.jpg"
"1059","14","experienced",3,59,"blast","hard","blast",1.155,"blastHard/BL_1121498.jpg"
"1060","14","experienced",3,60,"blast","easy","blast",0.544,"blastEasy/BL_21930890.jpg"
"1061","14","experienced",3,61,"blast","easy","blast",0.614,"blastEasy/BL_4062100.jpg"
"1062","14","experienced",3,62,"non-blast","hard","non-blast",0.762,"nonBlastHard/MY_9458406.jpg"
"1063","14","experienced",3,63,"non-blast","hard","blast",1.113,"nonBlastHard/VLY_22576540.jpg"
"1064","14","experienced",3,64,"non-blast","easy","non-blast",0.535,"nonBlastEasy/SNE_23013208.jpg"
"1065","14","experienced",3,65,"blast","hard","blast",0.835,"blastHard/BL_866426.jpg"
"1066","14","experienced",3,66,"blast","easy","blast",0.554,"blastEasy/BL_12930096.jpg"
"1067","14","experienced",3,67,"blast","hard","blast",0.554,"blastHard/BL_7477468.jpg"
"1068","14","experienced",3,68,"blast","hard","blast",0.579,"blastHard/OTH_21856141.jpg"
"1069","14","experienced",3,69,"non-blast","easy","non-blast",0.802,"nonBlastEasy/MY_9113623.jpg"
"1070","14","experienced",3,70,"non-blast","hard","non-blast",0.789,"nonBlastHard/MY_9449514.jpg"
"1071","14","experienced",3,71,"blast","hard","blast",0.736,"blastHard/BL_2038838.jpg"
"1072","14","experienced",3,72,"blast","hard","blast",0.611,"blastHard/BL_669395.jpg"
"1073","14","experienced",3,73,"non-blast","hard","blast",0.569,"nonBlastHard/LY_4461956.jpg"
"1074","14","experienced",3,74,"non-blast","easy","non-blast",0.681,"nonBlastEasy/ER0944_047.jpg"
"1075","14","experienced",3,75,"blast","easy","blast",0.61,"blastEasy/BL_12930163.jpg"
"1076","14","experienced",3,76,"blast","easy","blast",0.528,"blastEasy/BL_21964482.jpg"
"1077","14","experienced",3,77,"blast","hard","blast",0.562,"blastHard/OTH_23078373.jpg"
"1078","14","experienced",3,78,"blast","easy","blast",0.526,"blastEasy/BL_21930894.jpg"
"1079","14","experienced",3,79,"non-blast","easy","non-blast",0.626,"nonBlastEasy/PC_6228.jpg"
"1080","14","experienced",3,80,"blast","easy","blast",0.528,"blastEasy/BL_21930172.jpg"
"1081","14","experienced",3,81,"blast","easy","blast",0.877,"blastEasy/BL_2038856.jpg"
"1082","14","experienced",3,82,"non-blast","hard","non-blast",0.574,"nonBlastHard/16258001115A_030.jpg"
"1083","14","experienced",3,83,"non-blast","easy","non-blast",0.655,"nonBlastEasy/LY_8271951.jpg"
"1084","14","experienced",3,84,"blast","easy","blast",0.521,"blastEasy/BL_4062132.jpg"
"1085","14","experienced",3,85,"blast","easy","blast",0.544,"blastEasy/OTH_25263206.jpg"
"1086","14","experienced",3,86,"blast","hard","blast",0.582,"blastHard/BL_4062135.jpg"
"1087","14","experienced",3,87,"non-blast","easy","non-blast",0.547,"nonBlastEasy/ER0944_038.jpg"
"1088","14","experienced",3,88,"non-blast","hard","non-blast",0.741,"nonBlastHard/MMY_10101282.jpg"
"1089","14","experienced",3,89,"non-blast","easy","non-blast",0.665,"nonBlastEasy/ER0944_026.jpg"
"1090","14","experienced",3,90,"blast","hard","blast",0.58,"blastHard/BL_23546133.jpg"
